jMRUI Data Textfile

Filename: dataset13_nWS.txt

PointsInDataset: 2048      
DatasetsInFile: 1         
SamplingInterval: 2.5E-1    
ZeroOrderPhase: 0E0       
BeginTime: 0E0       
TransmitterFrequency: 1.2322E8  
MagneticField: 2.9E0     
TypeOfNucleus: 0E0       
NameOfPatient: dataset13_nWS
DateOfExperiment: 
Spectrometer: 
AdditionalInfo: dataset13_nWS
SignalNames: dataset13_nWS.txt;


Signal and FFT
sig(real)	sig(imag)	fft(real)	fft(imag)
Signal 1 out of 1 in file
49941.4390000	-3.9448284
49753.7190000	-7.3872651
49532.7480000	33.8700400
49279.7300000	38.5065570
48916.3730000	78.6501040
48726.8410000	84.2514540
48595.1160000	72.4316090
48307.1340000	9.9085640
48004.2300000	84.4239270
47802.9160000	-54.3731040
47663.1650000	-65.1794180
47450.5420000	-66.5826520
47218.0570000	-25.6843120
46959.1380000	-54.3112590
46711.6360000	59.0481990
46547.3810000	-49.2824930
46252.6200000	-62.1071080
46032.4640000	-10.7748930
45820.7270000	-68.9321360
45724.2300000	-28.9009290
45483.6590000	-57.9517970
45233.1300000	-26.9532030
44942.8140000	-31.8995060
44812.4770000	35.0080750
44672.9680000	56.9298900
44437.6700000	48.0353130
44138.0200000	-43.1350670
43905.3330000	-61.1247480
43833.8610000	28.5620180
43587.0510000	-66.4153870
43403.3250000	-28.5857460
43156.7700000	-47.9996480
43007.9120000	-49.2197350
42714.6150000	29.8333560
42553.3280000	-44.2666350
42261.7180000	-64.5282590
42200.3110000	5.5825241
42017.5740000	-79.1613080
41802.6470000	-8.7984493
41567.8310000	16.8632850
41293.6210000	-70.3499990
41121.5270000	21.8413650
40936.9000000	-50.5276400
40713.5460000	-16.1474690
40497.1630000	-44.9768080
40414.2120000	-22.9137770
40155.0770000	26.7264900
40071.9120000	-38.2867580
39794.7440000	-58.3467020
39663.0380000	-29.8971190
39395.4420000	-34.6302450
39278.3140000	-64.3873840
39092.9210000	44.0151790
38976.8970000	38.1227020
38685.7780000	50.3944530
38529.8750000	45.9876780
38282.9760000	-58.5430030
38215.9420000	43.7281890
37989.1570000	31.5905030
37879.5260000	-54.6816070
37555.3040000	-76.0947210
37532.8890000	-29.6646920
37337.7950000	-31.9486900
37102.9720000	-61.7352930
36975.5410000	2.2011303
36765.8630000	32.0845200
36533.6580000	9.1620081
36429.4030000	-74.2061290
36324.5380000	33.4590740
35986.4260000	-17.7415850
35880.8840000	-2.3118810
35766.1250000	76.8147750
35623.3500000	29.6916600
35366.2520000	-68.0818380
35306.4630000	-46.9741940
34982.4520000	-52.9756770
34886.3780000	81.1410980
34690.5280000	-48.4009230
34575.6470000	1.1530051
34455.8160000	13.6947600
34215.2880000	84.0504750
34053.2760000	-49.5182980
33863.9300000	-24.0105730
33740.8400000	-9.6979367
33676.2380000	1.5487713
33493.4650000	16.4234280
33241.7530000	58.7203600
33218.7120000	-14.3548760
32915.2690000	81.1724670
32760.3290000	-15.9555730
32674.6440000	47.9543960
32535.1900000	-48.6610770
32301.7180000	68.3756840
32217.3810000	-70.7351040
32142.0380000	35.7691260
31877.0010000	-69.5591420
31781.5670000	26.2240610
31619.0500000	35.3876350
31443.8030000	15.9564920
31330.8090000	-37.3458280
31110.9860000	-40.2338340
30978.5500000	-36.3724370
30809.1820000	-5.9815250
30696.6250000	-60.1559440
30539.8780000	32.7058470
30436.5310000	-50.3500270
30363.9420000	-35.5993660
30086.9880000	-7.5702725
29941.9170000	-11.2986430
29943.2930000	-76.2195460
29714.8030000	-34.0931460
29616.7130000	-12.5102250
29452.3920000	34.9444250
29291.3820000	-59.0696110
29180.3360000	-83.1245230
29124.0000000	-60.6555840
28828.3390000	34.2398770
28788.2560000	-52.5633600
28696.9950000	-4.9390202
28490.1650000	-64.0692770
28441.5270000	32.7828780
28193.3780000	59.6708720
28023.9290000	-56.9731820
27892.0910000	22.9812590
27788.2440000	-28.8395360
27782.5220000	42.2888810
27554.9290000	77.8862790
27519.1170000	-18.0740930
27241.4270000	-73.2748350
27135.8450000	15.7621650
26997.8330000	-26.6579600
26942.0120000	68.3027270
26755.6910000	-26.6999230
26706.0820000	60.8731190
26591.0490000	67.8622490
26507.9760000	60.1823320
26260.9570000	18.1793480
26133.0290000	39.2247190
26017.2690000	-26.1135880
25868.7360000	64.8036880
25829.8200000	47.7916150
25633.7900000	-61.2788820
25539.0780000	5.6147118
25482.2280000	66.9996480
25263.2530000	-81.9339020
25197.7030000	-6.1651604
25051.8270000	71.0900640
25048.8770000	-0.4410609
24913.7360000	64.6288280
24731.0130000	-7.1709558
24648.0080000	-22.9700470
24540.7880000	-39.1464650
24442.1230000	-57.9249480
24271.7480000	72.2365910
24099.6650000	77.2098920
23978.5160000	-30.1082980
23888.2860000	8.0048989
23785.5070000	-38.4641800
23794.3610000	-23.4276600
23536.2250000	39.3892890
23467.3220000	-85.2545460
23369.5260000	80.4174480
23342.6050000	22.1337420
23174.5140000	-58.3508360
23101.0180000	18.2789640
22987.3610000	11.5665380
22910.4770000	3.2682335
22807.2960000	-66.0389880
22663.9900000	46.7014430
22491.6130000	-73.8604240
22407.7050000	-5.1040177
22375.7850000	-47.4841110
22164.7550000	32.2664680
22153.7040000	-21.3931990
21931.6530000	44.3773150
21927.5830000	57.2153340
21719.1350000	40.9125160
21653.6820000	-36.7678960
21535.4700000	48.5389000
21433.6480000	-30.4936430
21411.9930000	84.5130760
21345.0170000	-75.4843370
21115.0810000	67.5833370
21115.0970000	66.3290070
20977.5740000	42.8638500
20949.1920000	-83.6228920
20781.3210000	-10.4432780
20658.1360000	-53.4559230
20643.0370000	-76.2025460
20444.3910000	70.8325550
20419.8720000	71.7758270
20223.2710000	38.2018610
20168.5620000	-12.2102340
20172.9650000	-65.5744610
20098.5780000	12.7855830
19911.6450000	-69.1989030
19812.0550000	7.4830962
19743.7120000	-51.3595940
19713.9100000	-84.1717480
19507.6510000	77.2065670
19464.2600000	41.0190270
19331.7550000	42.2663050
19267.0980000	9.1960846
19227.4220000	-53.9193160
19050.5290000	55.5171020
19058.2350000	-76.5673100
18979.6050000	-36.4982470
18818.2370000	83.7841550
18792.9100000	-34.1712620
18685.3720000	4.6260218
18516.8650000	67.7850450
18396.6450000	78.6547680
18302.6540000	-3.8886088
18225.0910000	72.8056480
18137.5960000	-21.7542630
18102.2710000	6.4551877
18110.1100000	-77.8490610
17999.4680000	-76.6962810
17848.9480000	-44.2528530
17730.5500000	24.5612600
17686.7330000	-57.7186090
17665.9430000	-68.4931250
17462.6500000	41.8975740
17379.0490000	57.3262520
17395.9070000	62.5132890
17215.3900000	-33.9903090
17132.8930000	-32.0180510
17177.5220000	-10.8859210
17085.3500000	-42.3316540
16922.9520000	-63.7895050
16942.4380000	67.5879690
16791.0160000	-19.0733050
16768.8210000	75.9652600
16699.2960000	-78.4707430
16616.2600000	-17.3117370
16515.1310000	-36.7247970
16342.4630000	51.5062760
16373.4080000	-18.2447110
16310.2960000	-61.2185990
16249.0150000	11.3452160
16030.3890000	-35.4406450
16061.3320000	-74.2635870
15949.4950000	-45.3247020
15822.0700000	9.8374758
15744.2530000	-57.9172550
15693.9000000	34.1470840
15664.3950000	24.5216720
15660.6060000	17.2608460
15480.7270000	-82.1611420
15476.7940000	57.4414220
15453.1220000	29.2777870
15329.4170000	54.2796340
15163.0670000	47.6109200
15215.0050000	-51.9649710
15166.4320000	12.8967190
14965.9940000	-52.6030930
14921.6510000	-3.9861970
14867.5270000	85.1631400
14759.3890000	61.6200560
14725.4950000	62.2584050
14690.3480000	-1.2036473
14655.3590000	44.5519630
14556.4420000	-29.2086020
14406.4460000	50.8910320
14405.4810000	1.7464828
14377.0360000	-11.4638870
14205.5980000	-32.4561950
14225.0420000	24.4106830
14137.3680000	-74.7269980
13980.4780000	11.5884560
13993.0990000	-35.4299790
13846.3660000	-81.4087510
13939.1090000	-74.9237200
13787.6120000	-9.3399123
13762.9080000	-4.0877708
13663.2450000	-47.6627690
13617.2820000	-20.3443620
13532.7940000	-77.4818370
13481.9730000	-74.7535870
13348.1180000	-35.0752610
13278.0500000	-20.5941950
13250.6620000	-4.6567494
13228.9270000	40.7577390
13222.9180000	9.4393133
13025.7120000	68.2858210
13053.5110000	16.1404260
12969.1610000	78.0027680
12916.6150000	-55.1577430
12841.4910000	25.6878940
12820.4470000	32.9765120
12691.0820000	-42.2897670
12676.4580000	34.7383640
12592.0670000	22.6612240
12637.4550000	15.7585470
12443.1530000	33.2011760
12377.4080000	59.7554350
12438.5110000	-43.4542440
12388.5510000	47.0036910
12300.1480000	-36.9007140
12240.1220000	-11.7480810
12174.3480000	-77.4596710
12131.4490000	19.7010570
12032.7300000	-42.6150530
12060.0160000	77.6966020
11973.6020000	-25.0690100
11816.6710000	-73.5462390
11792.0920000	63.0037400
11830.4050000	-51.6949780
11648.7130000	38.2062060
11566.0120000	49.0615320
11528.6210000	67.9899150
11521.3420000	-27.9046220
11472.0480000	16.6827150
11423.1140000	-76.5582130
11451.6950000	-54.5364820
11314.6090000	9.7317772
11260.0250000	79.8443430
11140.8930000	40.9512480
11236.1630000	-18.2823410
11111.9100000	-20.1565180
11098.4270000	16.3031170
10920.1620000	63.0133830
11017.8070000	72.1982460
10813.8630000	51.3267740
10885.9050000	57.1612220
10823.9330000	50.9254180
10742.6540000	51.8038900
10611.7730000	-66.8806610
10611.6720000	-45.6054790
10530.0060000	28.2334460
10617.6820000	32.3100610
10538.4390000	-58.8213220
10374.6020000	-73.4440060
10319.5090000	-58.8875440
10376.3610000	2.1308489
10322.1290000	12.5591550
10263.4660000	-4.4135138
10133.5680000	-23.6701270
10095.1750000	-63.0019360
10020.7380000	-55.0799780
10143.5410000	55.4963850
9962.6277000	-74.8724550
9898.8750000	-37.3933470
9920.2062000	18.9642780
9893.1360000	37.1428980
9767.8841000	-41.8206720
9740.5164000	66.5107630
9718.9355000	25.4558150
9735.9598000	-3.9037439
9608.9466000	64.2779480
9603.8426000	-26.1096010
9607.0170000	26.9943790
9586.9674000	78.3878130
9379.6445000	-26.6464510
9394.2525000	-66.7399300
9341.4144000	3.6663144
9334.4158000	-42.3438890
9289.8954000	7.2334746
9202.7561000	-80.2203370
9267.5567000	14.1323770
9164.8669000	42.0897860
9072.7085000	25.1411830
9003.3518000	84.9900650
8956.1117000	73.5284470
8974.4788000	57.4536950
8863.1402000	65.8606780
8896.5823000	15.0019850
8827.3800000	19.8885170
8879.1920000	32.8095010
8699.9301000	-47.5745040
8682.9868000	54.7736590
8717.4627000	-57.8051440
8653.5706000	-66.3912550
8567.5631000	67.7279110
8486.4636000	82.4160710
8530.3367000	63.5244530
8547.7770000	-53.6813770
8485.0874000	59.9237610
8462.3260000	69.6137390
8388.8300000	-42.9907510
8296.1138000	-23.1746500
8335.2689000	70.7562830
8257.2213000	29.5250890
8270.8021000	-9.0734985
8220.0014000	8.2297004
8059.2846000	33.0574280
8128.6105000	24.3784020
8073.2769000	-81.3916400
8031.3357000	69.9038950
7978.7994000	72.4724060
7967.3140000	-0.7268343
7892.4250000	23.6578760
7865.6351000	17.6798150
7841.1363000	75.8271570
7849.5529000	-62.2940030
7817.8354000	64.0632490
7802.3917000	-76.9165750
7728.7752000	-50.6222840
7598.1853000	32.1881580
7531.6746000	16.6328380
7573.4470000	31.3789300
7488.2998000	-78.6710010
7495.4184000	22.6940390
7510.1794000	-48.4355830
7508.2769000	-6.7786737
7346.1221000	33.9988120
7401.2177000	43.8411020
7357.0895000	1.2137760
7309.4743000	40.2413540
7276.6923000	42.6577890
7202.3546000	-51.6732130
7173.3931000	55.4650530
7187.8291000	-69.2674880
7168.1556000	68.6936540
7118.7771000	-68.4764610
7080.6870000	76.3420160
7114.7555000	-35.8324870
7043.5632000	-40.3281550
6922.8728000	16.0384450
6868.5842000	51.0916620
6906.8636000	64.8366860
6839.6222000	-81.3720380
6847.8918000	68.2625110
6868.0750000	-34.6050050
6835.8994000	-85.4077340
6733.8411000	-47.5599340
6782.9429000	-63.8413070
6675.1228000	68.6741730
6599.6466000	-17.0527820
6528.5734000	69.0023700
6501.7051000	-66.2960370
6504.4923000	-31.3851500
6499.0214000	75.8158410
6488.8100000	53.7680900
6455.1177000	44.1263170
6494.9855000	-43.0302050
6398.2769000	85.5216500
6433.3431000	39.4447020
6407.2437000	77.3001970
6238.8977000	-64.2277220
6202.7771000	14.7398010
6194.2146000	-26.3870410
6273.9352000	-60.8078090
6250.6982000	-50.2428440
6227.3380000	11.0685310
6096.5697000	45.3163430
6138.9659000	-53.7039440
6066.2528000	29.0530290
5966.8577000	-24.9535130
6002.4140000	2.7311293
5969.4729000	-39.6408150
5879.7624000	68.6829430
5960.9668000	48.4175880
5828.6011000	-66.4774510
5828.6897000	-80.5110040
5791.5837000	-66.9147130
5835.7895000	18.3924740
5743.6180000	-84.4372400
5800.0498000	73.8906650
5712.7581000	-6.5831630
5798.2451000	-85.3901470
5661.6027000	-29.1350950
5688.0635000	22.0458240
5693.0650000	-15.7466500
5630.1221000	66.2965340
5665.3652000	-46.1292950
5519.7697000	-32.8335040
5579.3714000	70.0642240
5418.0680000	22.9063120
5537.0463000	11.8478280
5487.9358000	66.9996660
5416.3352000	-15.9403050
5331.6091000	-25.3730280
5308.3873000	74.2423150
5350.0289000	64.8184220
5371.3545000	71.3551090
5246.5050000	-11.9482250
5337.9631000	22.1955380
5225.8827000	-60.7441960
5287.4120000	15.1595790
5278.0025000	-44.0991520
5125.3282000	-12.0252350
5086.6572000	3.0145259
5115.7907000	11.4605840
5180.6180000	27.9771020
5109.8920000	31.8114760
5034.8749000	72.3695340
5083.2177000	-13.0860410
4976.5841000	-4.0557711
5065.3564000	-44.9345400
5029.7169000	-51.1346400
4985.8884000	-1.7443961
4839.5265000	-56.5846610
4911.7912000	25.2761570
4844.1886000	53.7888950
4795.6839000	-78.7323630
4794.2205000	-75.8081170
4751.9517000	-76.4722150
4737.0568000	-81.1602740
4778.0521000	-77.3620720
4816.1780000	28.3326530
4731.4369000	43.6434280
4717.7351000	-5.7734393
4650.9570000	-1.1382925
4694.5220000	-8.8722493
4650.3154000	61.8400600
4563.4522000	-76.3415680
4550.0612000	2.5845636
4563.8935000	-24.9298210
4495.2545000	-7.3651059
4454.8903000	54.5474720
4559.1932000	10.4110860
4387.4861000	63.0877330
4523.2242000	77.7594920
4429.9840000	75.6090770
4422.4740000	77.4134920
4346.5965000	17.1314060
4415.1160000	47.4396270
4379.0359000	79.8063260
4406.7866000	78.4546420
4323.9009000	-1.7278678
4227.2530000	-51.7757660
4272.9249000	-80.3380290
4297.3579000	-64.5105890
4298.7328000	-8.8273987
4198.6321000	-33.5933910
4162.9026000	68.2138830
4138.9695000	-25.4999770
4165.5204000	-59.7495550
4119.4244000	45.4393240
4096.2764000	-80.2317190
4172.1688000	71.9897590
4084.4377000	-75.8545840
4130.5738000	42.3151920
3991.0601000	10.3032420
3932.2593000	46.3610250
3962.8883000	71.3163170
3984.3631000	-48.1211950
3979.0190000	79.2857970
3928.0604000	-74.0456610
3863.6080000	-68.6795050
3897.9771000	37.5047030
3875.6370000	4.2200105
3930.1618000	25.5765740
3896.8104000	-16.0196550
3779.0353000	-1.5173414
3842.0844000	44.3731820
3778.6611000	75.0483050
3849.1360000	-47.5340670
3800.7465000	4.7092808
3664.9075000	64.2487540
3638.5373000	-34.8692850
3746.0479000	-39.7170950
3630.1397000	41.7999830
3587.4424000	34.2938220
3666.9672000	-8.4425195
3695.9382000	76.9184170
3673.7800000	68.1246490
3612.1979000	-34.3706580
3505.2631000	53.2297130
3531.0441000	-64.9015340
3539.4022000	-58.1065330
3565.1916000	60.5808450
3453.2435000	16.2732240
3521.8664000	49.9237540
3494.5569000	6.6239051
3528.8127000	63.0344960
3449.5623000	-43.6479700
3517.7822000	18.1208500
3442.1183000	72.1034190
3390.6504000	54.2778710
3351.8074000	-18.2385190
3360.5782000	36.1845550
3383.5588000	36.7504470
3281.4657000	22.0309070
3299.8568000	-13.2932590
3371.8343000	-38.2147240
3329.8249000	55.4754200
3279.9214000	82.7395350
3326.5534000	74.4238920
3230.3227000	-8.2523775
3254.2502000	-14.2323690
3228.1887000	-74.7918890
3213.3213000	-63.3205530
3227.8411000	-21.2365920
3164.5132000	43.8891360
3229.1658000	55.8968730
3067.5550000	-76.3490540
3140.8871000	-5.7113995
3144.3134000	-28.0973780
3114.8546000	-77.9249270
3157.5138000	-46.4994310
3143.2328000	54.3896560
3000.5136000	29.9892730
3048.1853000	-15.2927580
2998.3926000	78.6868370
2958.2654000	-3.8617138
3007.1867000	70.3858080
2945.0172000	30.6548620
3038.4159000	-77.1750310
2885.1226000	-23.6846290
2877.1908000	79.4795480
2924.2364000	76.3324630
2861.6685000	51.6668280
2964.8980000	80.1265890
2898.9988000	15.3203610
2849.0475000	-49.6659490
2780.9041000	-33.3155770
2767.7926000	81.2858530
2916.9183000	-79.2320760
2868.7323000	-48.5992490
2832.6362000	80.5118150
2791.6285000	67.4541400
2787.7425000	71.9398090
2839.1216000	-75.4494830
2818.8642000	-38.3030860
2790.1678000	-12.2343190
2735.1249000	-65.3612210
2724.4086000	-68.7195670
2663.9732000	-46.1336760
2749.7840000	54.6892550
2687.1338000	44.0433600
2702.1128000	-53.3845730
2708.3445000	-50.0147020
2695.0316000	-28.1975500
2671.4059000	-22.7849460
2628.6647000	-73.5978600
2543.0641000	-18.3053540
2572.5098000	-79.6474190
2491.6442000	-36.7699980
2494.3609000	-6.1339521
2568.7242000	-0.7707166
2547.3478000	72.6174910
2478.8879000	30.0518620
2508.0712000	83.5373900
2503.2039000	39.8139350
2511.6491000	-74.8773790
2430.3316000	-40.5631340
2525.6463000	65.7207770
2420.5965000	-16.4334930
2527.7349000	28.4959970
2493.2299000	-24.7800860
2357.4044000	51.2967690
2433.3027000	79.0345340
2417.7668000	-39.7469750
2402.7457000	17.4843560
2360.8601000	-26.0903090
2428.9358000	-30.8741180
2337.8565000	-59.7770740
2333.2359000	18.2692220
2387.6241000	-34.1254600
2265.2112000	9.1514492
2298.1739000	-4.6810660
2374.0999000	38.1033600
2238.7715000	-62.4222100
2311.6814000	-11.4080150
2313.2483000	49.1048590
2206.2329000	-19.7484240
2191.6598000	-76.7982280
2209.6923000	-70.7565650
2232.0429000	-52.9924830
2269.9037000	-41.0388560
2213.3301000	75.1424240
2142.9804000	25.2252270
2214.9835000	20.5160810
2250.4895000	51.7127930
2124.8997000	78.7857280
2162.7175000	43.5205070
2139.2028000	-46.8530500
2170.2271000	39.1153040
2114.2683000	-77.1414750
2063.9481000	-29.1949500
2042.9651000	-77.6790230
2107.6821000	81.3210330
2075.5760000	10.4352250
2046.3333000	-19.5170380
2149.6913000	63.8497190
2111.0667000	51.4934820
2110.4573000	-48.6665690
1954.6246000	-79.8473200
2062.8532000	-31.0604060
2001.8018000	36.1370870
1976.4986000	68.8562610
2023.3994000	5.4519176
2020.4623000	-75.8928160
1994.6489000	-5.1268091
2004.1889000	0.6585815
2014.7732000	-29.3392680
1985.7291000	19.5613170
2019.8996000	56.8387170
1895.6234000	-3.4512369
1845.4705000	17.1489870
1900.9425000	22.4059120
1829.2581000	61.7524700
1838.9491000	13.5522520
1917.2333000	-54.0475410
1939.5571000	19.6500020
1941.0811000	53.6933090
1809.1272000	-36.8993690
1936.0792000	-53.6224340
1833.1602000	-14.8854310
1796.9052000	81.4123510
1860.6411000	42.5465430
1775.0833000	-23.4206130
1732.6815000	46.4224270
1745.7982000	-42.0400220
1872.7271000	-7.6416467
1766.6776000	-44.1262100
1718.2736000	63.3645900
1794.6109000	-15.4716430
1694.2111000	0.2198663
1809.2965000	8.2233469
1739.7047000	82.0879870
1679.8813000	63.8303860
1678.9244000	46.3283920
1734.0475000	76.3445710
1651.5940000	-55.1566610
1679.6625000	-7.6345827
1631.0107000	-27.6731640
1761.6592000	67.6373270
1757.1665000	48.9209610
1604.9867000	31.3277150
1631.0556000	-64.6059580
1639.0396000	-37.1640700
1591.7146000	21.2601250
1647.9745000	68.3546510
1668.6358000	42.1427760
1698.7554000	-27.7730630
1622.5317000	47.5334600
1626.1459000	-54.8311490
1549.2731000	-54.0272470
1537.6466000	78.0775850
1524.1853000	-47.3384990
1594.2241000	-70.2003590
1488.1472000	58.9768810
1551.9982000	17.9187550
1641.6930000	-46.1585240
1576.3498000	-43.0154020
1619.8990000	26.8474360
1520.0950000	39.2358620
1491.2086000	77.2328790
1505.1941000	38.5285910
1514.8782000	83.9460840
1577.5669000	62.3649600
1444.8402000	-11.1012840
1439.3891000	-28.1543580
1488.1220000	54.4441750
1479.9974000	38.9014770
1408.5436000	-26.6890770
1464.3434000	-17.3500820
1432.3138000	-17.9447060
1529.2480000	24.7680490
1523.6347000	-10.2050450
1419.9776000	55.3725370
1350.5315000	11.0217050
1382.5506000	-84.2479570
1336.4449000	-81.6968630
1457.3932000	-2.0091076
1333.0027000	58.7460570
1327.9486000	52.9565160
1388.7162000	-52.7424260
1337.5077000	-15.6805120
1408.4485000	29.1354670
1311.9514000	-18.3985550
1368.3658000	-7.5707029
1403.4439000	61.1666260
1345.5376000	63.4491250
1333.8293000	-4.5799245
1283.0411000	-29.8461400
1305.3752000	-2.9196840
1352.4993000	-79.4209260
1403.3914000	52.4649990
1248.1888000	-62.8004200
1378.5246000	48.9206100
1239.2840000	-46.5374330
1331.9067000	-75.5052060
1239.1637000	57.6676380
1218.6550000	14.0593830
1331.3560000	42.8286790
1243.1264000	-26.7584500
1188.2809000	-19.3118630
1309.5344000	-43.4949550
1290.8629000	56.8930220
1330.5072000	-56.9611110
1215.4122000	-76.5190780
1291.0885000	-11.7643860
1180.0681000	10.0529480
1215.1487000	-80.7086750
1216.8023000	85.2589070
1247.8502000	-47.2540660
1153.7758000	66.5729020
1212.3220000	-3.9183884
1123.3801000	-35.7685120
1108.6523000	37.6148170
1128.3601000	-62.7276010
1093.0086000	-29.2723490
1211.7463000	2.8985022
1183.8693000	27.9088240
1191.3683000	3.9818161
1079.2162000	38.3375590
1140.3151000	-2.7351454
1203.6808000	-74.6711340
1069.9904000	60.5950840
1077.7426000	71.7976930
1084.2831000	33.1546930
1150.0112000	69.0150010
1083.9211000	40.2573990
1042.2571000	32.3061200
1125.4162000	30.8404570
1159.1157000	14.6243020
1028.7666000	-5.0719507
1129.1337000	-53.8810350
1033.1327000	-53.7186070
1072.1820000	-6.9194106
1143.2209000	-66.4498580
1051.9945000	-22.4437840
1036.9959000	-27.8648050
1011.3718000	-74.7846560
1039.7294000	8.6519822
1035.5580000	17.8919950
1035.4513000	70.5019240
1077.5395000	28.0434080
1070.5375000	-19.9933130
1005.9399000	67.4273730
1072.9409000	-7.5685487
958.5860400	9.4938881
1043.1093000	-16.3308450
1077.6539000	-53.2075450
1028.8582000	-17.6568670
921.5525000	36.2009500
1073.1689000	-45.7352040
1071.3432000	-20.1540490
1062.3222000	58.2712950
1032.8700000	-32.6041760
1005.0111000	-31.6606330
1026.5683000	-58.6052260
1013.7635000	-19.7089040
983.4532800	-72.9184570
879.3829800	81.6226720
930.6700000	60.9502600
894.5893900	17.3705030
897.5349000	-71.8505440
940.2589700	-66.5722340
985.1188400	-14.2097180
960.1034900	0.8186379
902.4481400	-54.9918150
894.2791800	-16.0265980
912.4008000	46.7435990
882.9585800	-66.6836590
835.4005800	54.7545040
974.6931200	76.6709090
941.4709200	-30.6227270
918.1308300	81.1258220
957.7223500	-71.9520020
811.7862700	0.0548583
898.9607400	-43.4234690
816.2964800	-5.9435187
892.4039900	74.8064890
877.4187200	-65.0679720
956.3445700	28.6510590
869.7057600	51.4417530
866.4737800	-34.4425080
869.0680500	71.4168540
921.7598900	-78.0255060
879.9460300	-45.6031270
853.9090800	-0.1448278
902.9249200	-26.6122880
864.1746600	-68.5184190
857.4421400	-10.7738270
748.3113500	1.8872481
760.1975900	-13.3265610
815.9801200	9.9698840
808.2311400	15.2797060
776.8833500	12.2823990
753.7117000	-5.3245868
831.0622500	-46.7216700
814.2115400	-25.5681970
874.1563400	-73.8841130
835.9273400	-14.8040380
778.8905300	-48.3012680
774.6745200	66.1700760
802.8137800	-64.1699420
831.6161100	-2.0275046
855.0096700	-29.3882710
840.6387300	-61.3002980
708.0795100	-84.2691410
784.0553900	59.4727310
682.5401400	-30.4725950
684.1868100	-26.9530500
717.4527000	-81.8394240
722.6686600	13.8819310
744.7570800	-78.8005880
752.0193400	58.3751820
732.4638600	81.8580990
715.6936600	-22.0298080
701.7468200	34.1812200
782.9564200	1.8005023
765.2308600	21.7657100
700.4554500	-26.3703590
654.2688900	34.5122930
701.8924500	65.6396570
731.4817500	-72.7142110
631.1200200	-53.5591420
667.4402200	26.1415700
705.0896700	82.9779160
627.6434000	63.0113220
728.7862600	-68.3154520
775.2094300	-82.6955510
666.0319800	-72.1215190
630.0002800	9.2618472
665.2020500	26.1213940
739.0829300	-47.8214550
637.1332600	-30.4583920
648.7504300	-26.7240930
680.4578900	-80.9544610
690.2651100	55.0998070
589.9502500	-4.7420699
738.6697000	59.7168640
652.7531300	-82.8535930
678.3335400	-46.3567440
618.5223700	75.3525980
690.7850700	83.0600580
594.6391800	-76.3312540
711.5238300	13.6850080
588.0747300	45.7567920
590.9433400	-12.8919320
652.3901100	12.9452590
646.6367000	-14.3125070
620.2803600	-84.8299260
558.7483500	-4.9711092
690.7259600	-40.2408990
662.3577500	-62.2212930
543.8967800	7.5701960
604.9750800	-73.8606480
663.8192900	-26.0747740
538.5440600	-1.9804595
679.4694100	55.5289420
541.7874200	80.3306970
639.6571000	80.0714520
557.9873300	-46.0101320
650.8176100	13.6815060
652.9255400	15.2885460
639.9165800	6.4716777
650.2008700	9.1154258
550.0603100	12.9210710
638.3093100	19.3684140
521.8388400	-63.7794320
523.9013600	48.5897390
518.0935800	75.2405410
530.7587000	21.8623230
627.5243000	9.6453265
557.2580800	-8.0119274
546.8550200	45.0764930
492.9138200	-5.2748400
476.4583300	18.3872030
506.9051300	-60.7071830
517.9573400	-55.0285990
513.7629700	-20.7745320
555.1686300	-29.2462270
528.6471500	57.4159480
595.6179200	-70.2105450
455.6805100	57.0676860
482.7016300	64.4604900
577.4956100	-51.6322420
551.3446200	43.8770940
447.5050100	-71.2347770
567.7508200	22.9019500
594.7523500	57.1157840
521.8641600	-41.8749200
592.0528500	-76.5866650
547.7422600	85.1484660
454.3688300	55.3422130
439.0137600	16.1670840
548.9222100	-55.4559550
480.1063200	62.4090760
554.0302500	46.2184850
537.1587800	57.3722480
548.9039100	-21.2066290
466.1744600	-63.9177820
575.9054200	13.5377870
441.7283800	-43.0629390
539.5562500	-3.8340952
549.1796500	68.3949280
562.2403800	43.6534550
459.8529200	-79.2075670
527.7583000	-59.9083070
497.2332600	63.8805530
511.0652400	7.8524261
487.7583400	-56.1188540
493.9711300	0.6078381
509.9610100	-63.8866830
483.2509600	46.5349450
547.9294100	60.9646720
487.1711800	-5.8020326
437.0421200	20.6335530
429.7559100	25.0554200
424.3719200	17.6225640
402.6615500	13.9343460
419.8857100	-3.0195811
472.3185400	-14.7985000
524.5968000	23.6262220
406.2069000	50.6416340
467.1468400	-1.3122096
475.6236200	75.7128980
426.4803300	58.7525360
496.4489300	-36.0108970
445.0545800	50.8658640
502.2123600	-32.5736560
353.9749100	-27.9611810
510.5177200	-55.6149410
475.7034100	-0.6889993
393.8288600	66.5149860
390.6095400	3.5361693
390.4100500	59.1429770
378.3223300	-57.4105200
371.4107600	-56.0106230
471.0823900	23.8695840
451.8622300	18.0943210
356.0151400	61.2790950
359.1031300	-20.4065770
350.8889800	-61.5416000
403.3668200	-65.5512110
320.4828000	49.4126030
347.6279300	5.9901363
485.0203300	-78.0998850
440.1188200	20.1191030
439.9523400	-66.4274500
321.6370700	-44.5613360
438.8698700	35.1098810
449.3756400	1.8461403
345.2419800	-48.3712110
333.9643800	-49.2301190
335.2268000	-30.7585320
302.7138800	1.5611207
387.3831200	-49.3723220
337.6290200	17.1026670
407.2632100	11.3797320
356.8387500	81.2821780
454.6673300	-63.5914330
446.1704800	-12.5196030
389.0739200	51.4678710
450.3430200	-42.2342020
400.1096500	-23.7443910
436.5179300	-78.6772240
425.8978100	69.2189830
428.6281700	38.5542540
316.4793500	-41.7980920
417.1734400	35.6630630
423.4271800	-40.2697470
431.5913900	14.7156020
345.4577300	-6.9167914
401.4929800	17.0002670
284.6193100	11.8626120
395.2973300	24.1261700
421.1435300	-17.1914720
302.9238900	62.6793630
392.7972700	-55.2683590
321.2647200	82.6553300
359.7031100	-11.8060210
391.5544300	62.9758180
287.5134400	-47.7172250
369.0997500	76.9701640
362.8006000	7.1752389
303.0159700	41.8771950
413.7716800	12.6044270
307.6639400	-40.2840500
346.7382100	-49.5510280
393.2783000	-58.0355620
357.2910200	24.8352010
343.2225700	84.1333520
296.0919900	78.7645910
236.9739400	-77.0683910
350.6913200	83.4390900
323.7279100	63.8736100
292.4715600	19.3984480
342.3653700	82.5421650
398.3970700	-6.3401685
341.1591400	70.2900320
289.0639000	60.6128240
281.8225900	-10.1793310
291.6605800	51.2286160
309.3850100	-2.7050114
297.7683700	-22.3136710
287.2592800	38.2307500
344.3258600	-33.2246630
248.9488600	67.1029450
356.6723900	-23.6216640
238.2856600	-47.8375350
326.4001300	66.8453550
276.6845600	84.6806580
337.0688200	49.6008650
283.2330600	48.9510490
333.1860000	84.6290240
236.5530900	10.4568720
365.9340800	-85.2345740
282.1499400	-9.1215208
221.2675200	6.0052534
311.0465700	-5.8782095
306.9712900	-0.6769599
340.7372500	63.0254050
241.0785200	2.6895423
340.0403300	76.3313540
210.9711300	11.7458730
360.3525900	-18.3893200
195.4241200	-48.0231930
354.9970600	-53.3264700
268.5370800	31.5078990
266.2321600	-73.1044360
322.0777900	9.0339775
254.0532400	-23.2100100
234.7400000	-42.3018790
295.1696700	33.6917160
223.5895700	-40.2821090
197.7344800	2.6055494
246.7790600	48.8196650
200.8783000	-77.0782520
338.6025100	59.5802610
299.4765300	20.4673680
218.4322100	-19.7517520
220.5488900	21.0392840
285.7612000	36.1669720
206.0602800	66.1087280
321.1286400	-51.0079840
306.8062200	-65.5578450
322.0344800	39.8663600
235.8736700	28.2878910
198.5756000	-9.7431169
180.7818700	-41.4970160
190.9783300	58.0241790
217.0387300	75.7234130
203.2444700	-39.7434840
316.9926500	39.6214600
188.6343900	40.4910460
171.6477400	-5.8984317
233.3382000	-17.9830420
263.1232200	-65.6317150
295.8881200	-50.4981180
317.3950100	41.4036000
157.3754800	31.0523210
176.2244500	61.9773740
242.2115400	-4.0837620
149.3587400	35.1973750
288.7812300	-45.2162080
292.2988000	50.8951260
289.8739100	18.4660050
225.5207200	52.6173320
242.3793600	43.7720580
238.5320900	-64.7525300
265.8191400	83.3113040
287.3195800	-37.0832870
175.4989500	-0.3769730
294.0008600	-31.2176860
165.4177200	-70.6923710
176.4680500	42.8775500
268.9594400	53.3688360
271.3746700	25.0978080
286.9212600	-14.0111890
199.1395300	63.4022970
136.5173600	-68.7908150
265.4736700	57.3919310
228.1617300	-59.9615590
294.9233900	63.4199770
183.4220500	-20.6801980
168.8403600	-75.9904620
226.7336800	-73.8355180
196.5384000	-2.2374861
170.8855200	20.0735320
268.4138500	-50.1354800
130.1888100	63.1694040
243.9032700	-56.7212260
185.9494400	-16.3764200
213.0657200	48.2971370
163.7419900	37.9208530
220.8557700	55.4704470
145.3300700	56.8998000
195.0617200	-32.7116470
203.5535800	-21.8541580
147.4299500	-12.8793930
113.1931500	60.7735600
129.8411500	-14.3757570
209.7828900	-59.9558230
158.7061200	44.3162940
273.4087900	16.4692650
240.1579400	31.5731420
121.5453500	-39.3028580
133.9982500	71.3644370
105.0879000	10.7650590
176.0948400	-36.2108580
255.4252600	68.6102960
202.0001300	-5.5780448
230.4225200	-55.7500240
156.5541100	48.0373820
108.0690900	13.1410220
260.9107100	-64.3539050
144.8886200	-15.9459200
96.4447200	45.5222350
233.5132600	12.9211890
235.2470400	-32.9865870
242.1914700	77.0666110
108.7944800	9.6206368
125.3694200	-53.2092680
218.4416000	33.6489800
236.0376000	-53.1447070
156.1497800	71.0062690
235.5453300	58.0933680
246.7482800	41.0937330
233.4489600	25.5347580
230.9690000	-49.3338200
114.2967100	32.3219550
111.5381900	-58.6260410
119.4642700	38.6046320
134.3424500	0.0057554
190.5271900	82.0595930
112.9026600	50.9447610
214.1077000	66.6066520
215.8376200	-76.0809920
84.7438680	12.4417850
76.8270330	59.6760610
191.7713100	44.4996770
156.6763400	-78.3492430
222.4172700	-11.1554150
164.1016400	6.6266232
212.3070300	79.4640280
239.7289200	63.4122400
132.7357400	33.0465800
238.7411500	38.7130600
190.2132400	-60.6694310
68.9250170	-29.2369820
229.7974500	51.7150880
79.0583440	-40.9383150
100.2784600	53.6597380
197.4056000	-34.9701480
160.1462500	68.5360830
165.5191500	-34.4949710
219.9040800	-62.8367650
201.3433800	49.0671570
221.6106300	8.6978139
185.6483100	34.5307900
156.0030800	-28.7560740
210.5601300	50.1678840
145.0448500	-76.3420440
138.9595900	-58.9387410
127.0792400	71.3398090
199.0079400	-76.6291490
185.0295100	84.7904430
72.3974620	13.1438070
92.2017980	26.5885580
87.6241040	-74.6695170
197.2034800	-3.1313399
197.4436000	-23.3920580
130.8004400	9.5419635
205.1861400	-75.7550910
122.5517400	40.0356660
159.2085500	-76.2535670
174.8161700	-45.7713340
70.4335950	-85.1357200
202.6020600	69.0421470
121.5763500	27.5195670
149.0114100	37.0042290
168.4770900	71.1202680
78.5519790	-35.5685590
154.9942800	-37.4535200
200.2548200	27.6931990
137.6205700	-54.2506180
172.3344100	-29.0418340
87.3662990	-2.4341288
158.6690300	-68.1523560
67.4396940	-2.6207103
54.9625620	15.0286000
150.4921400	-40.3666190
200.9653200	-9.4078843
43.8976450	57.1594200
41.6377020	19.2452200
114.2480300	-45.2826160
77.5670620	20.9912970
157.7978700	16.0558490
86.5355700	43.9551200
64.5857700	-56.7465170
97.5776590	14.1609280
114.6676200	33.9195340
179.1984600	20.2226910
155.4888700	72.8894470
172.7361900	-70.8435580
187.2634000	27.7722570
55.6734440	-83.5502690
36.0829700	-72.5041510
71.8265840	-36.8184860
170.7300500	-70.8954240
93.3914890	53.1784630
47.6632750	-34.8327900
116.1494300	-65.7424410
175.8257800	-67.0586930
158.7795000	60.5388040
126.3221500	16.1968430
91.1787390	-54.1758140
109.7515600	64.3999380
72.4024860	-41.7726190
175.8539700	74.2162730
61.8860460	27.7974790
145.9927200	21.1757880
35.2138750	-10.2858270
107.6223000	12.4601600
120.9424600	-65.8696800
178.1115300	43.7586470
97.7883640	-1.1485121
141.2770800	-16.5127860
112.0344300	-74.0306220
44.9773930	10.7356460
172.1497000	-17.2303130
33.4182340	-11.0943620
77.5026630	83.6176040
76.1112750	-46.6788950
188.1300400	-12.9537030
133.9827400	-39.2834210
109.4687300	-49.7995930
28.0412250	45.0131620
34.6015320	54.1284100
156.4316500	-84.9605400
88.9390570	8.9771834
159.6889600	85.1235360
54.8652110	-15.6300720
178.3686400	-47.4099880
142.1585600	47.6650580
68.8232660	59.5522860
101.0409000	21.4880810
29.6790530	-38.7946620
48.8862620	-14.0441200
125.7914400	75.8375400
26.1497450	-73.3722740
113.0819000	49.7817830
118.9964300	-77.5545630
103.5596200	17.3260740
39.3243980	13.1832070
95.9731890	56.7021310
154.5916500	-56.1789760
74.8213710	-30.3089820
97.5262220	-62.7219380
99.6823710	-29.4635790
20.7724020	45.2099100
75.5112540	-37.7127570
20.7671170	12.7670390
132.9859500	-53.9813250
161.8330400	85.4318010
110.5483100	-81.0615130
30.0541030	-6.7227788
106.9136500	10.7491640
130.8839100	24.2816250
163.1679300	-19.6613030
83.1182370	53.2219300
115.7560900	-59.6717320
126.2956400	65.8948920
95.0838520	-24.0020680
141.3719000	-53.3102420
44.3462480	-25.7431680
162.8352500	-54.6219980
51.1557640	79.1198140
91.9106130	29.1002280
70.2704000	20.9838450
39.1202510	-11.9688380
100.9209900	-84.5008050
91.6774730	67.9387930
114.0796500	64.3183220
25.7101740	40.9950410
74.1817220	-82.4166240
41.5017520	-22.8281550
37.5770680	50.2190630
117.4872900	69.4536250
41.1210780	-76.4143580
128.9940900	-65.0512230
20.0989370	-70.1688820
120.5390900	-40.4618170
14.7508930	64.6435000
48.3452350	43.3236400
133.1174800	53.7543790
15.3382060	42.8115270
21.6826030	15.1915060
141.4347700	-43.6198000
142.1694600	-0.8035219
51.8469190	-19.3961490
-7.7325477	5.2965854
42.0867340	-19.0229930
141.4666500	-48.7370610
44.5171580	10.1092990
37.2131060	46.2395010
7.0001861	-31.6609560
-8.9231650	-71.3669480
77.3598340	-37.5048440
42.5172140	80.0818350
116.1086900	-66.5668290
22.2656640	34.7651910
83.3647570	46.4406160
122.0752800	-74.3277800
82.3753450	27.7999800
51.2474530	-2.3836133
112.9840800	79.1640660
116.9780200	55.2210760
104.9628200	66.1780090
40.3413350	20.7700770
114.4204100	63.8231110
33.0590110	-79.8580770
32.3046020	-63.4875250
-1.3719348	-61.7197170
71.3082900	16.5989720
17.0095150	-25.8055620
41.4404920	58.0029620
94.2430600	-16.7463200
84.2515390	53.7616290
-17.5293720	14.1093740
87.9255560	-9.5604452
54.6273080	4.5096941
83.4555910	54.5405930
84.7693200	-17.6024210
-14.8644690	-63.0323240
34.3924710	-65.8186070
123.6319500	-3.1611963
138.1446100	78.0690050
79.5736290	84.6953080
96.0566500	-40.6027150
110.7166400	37.4357580
80.2190490	-79.5970530
18.3523370	-46.8157090
90.7597490	28.9273980
93.6006380	5.4021799
45.6432310	10.0293030
-16.3845290	-84.1775430
77.0197640	-53.3368020
45.8294370	57.1879310
24.0178070	29.9636400
105.9646000	54.5884830
43.4514150	-58.5922740
13.9862760	-84.6720310
55.9947670	-36.6978750
17.1090620	-9.1905550
100.2814900	42.4900350
24.1351900	15.5841990
126.1891600	45.9809130
54.0267750	-40.9013380
129.3156200	15.3220660
27.2084840	77.1558700
22.5636220	-3.2668962
100.2436800	-26.3991400
71.0113200	44.3831290
30.6536510	29.0744500
-6.7466685	66.5717390
-4.0310159	-53.5512370
78.7729660	1.5476914
102.4666500	-42.0041990
89.4627790	29.2643250
138.0107800	-37.0220350
4.5921237	-71.6196850
62.2404030	-45.1848100
126.8442000	82.2605370
48.0174080	-16.4308110
12.2040620	36.6666060
96.6602680	-32.2320200
76.3220510	53.5298860
35.7316240	-10.3350300
96.6961990	-34.0979480
74.4452520	22.3125060
134.1903700	-27.4145630
110.9188000	-35.4100490
68.7637730	85.5142610
-2.9908629	1.0920601
123.6553800	-25.6299140
32.7341420	-29.1396210
71.7364340	45.6997120
126.9736600	-31.4290390
11.9293710	18.6870950
-5.7443529	-38.9154430
-20.4578870	66.2956930
40.4859190	-59.7868280
-23.8838410	11.5860530
89.6930850	64.8767110
-0.8674471	24.2974680
114.5438000	-9.8863082
122.8591000	67.6061800
35.2864160	79.3770180
39.4890430	-12.1810790
103.6816800	54.3154200
-22.6752690	43.4594570
132.1674400	13.5897270
30.5323810	-42.1495990
43.8180790	-49.8073310
103.5520000	5.2559167
41.4490580	-1.1502213
126.8863200	-43.8196030
-3.5957384	-23.3529000
111.3503300	32.7185370
129.2843300	60.5820040
-15.8309750	59.1896900
92.7320020	-33.7308840
97.2883570	77.8405780
84.7989780	80.1015350
-8.9946769	-16.4102960
103.0588300	-57.6316590
94.5929300	10.8346560
-6.1909476	54.1142550
119.6268000	-29.8580620
-41.5782010	-51.9658330
25.7276400	-15.4291940
73.2904130	4.6738859
104.1255400	-36.3011360
93.0243950	72.6030070
96.9948470	53.8668620
-29.1198680	41.3530220
68.2306420	21.7921920
30.6471580	-58.8733110
57.5224800	36.8378520
81.5457060	25.7804540
-36.5554450	-71.8676380
98.9228310	6.8904069
23.7827840	71.0385170
-43.0923680	11.9230230
-27.9671910	75.2627190
35.8597410	46.7875540
-22.8592310	24.3681320
106.7011700	-14.3840230
-37.0074400	14.6599090
-3.3107001	-37.8735860
10.9813420	-34.0658530
69.1526810	54.1591160
-12.4716760	-70.2025480
62.0001420	65.3281780
69.6073100	-67.8651590
52.8158560	73.0374010
-24.3558050	16.5046300
11.1953980	-63.1798110
-26.4700260	-46.7439450
2.3186215	39.0919590
23.2869560	57.5004200
61.1399540	-56.2010200
74.6526770	-51.4348980
71.4167410	-59.0846220
24.3315140	5.8010149
66.8641450	-23.0479660
-7.5641962	12.3579450
-44.1607340	19.8971540
28.2701390	46.0222230
-3.6370839	45.5970390
-33.4956650	61.5723090
27.0400390	-49.2240580
-17.3163840	-21.3014180
1.8600794	36.0193880
45.9188910	-8.6672175
96.9924380	-63.8630860
-34.3641720	-41.1479050
3.3601596	-18.9155710
-36.0763850	-26.8435570
77.2305710	85.2642080
55.2794390	40.8592500
52.8971820	-33.0438480
68.8443220	33.6907320
2.8646146	-65.0627920
-28.5319080	39.6121020
-29.7606950	-25.3193960
-21.1337690	32.7975350
79.9963820	72.3714500
-22.6256000	74.6472190
-35.0765830	-0.4352112
81.5415760	-44.7869730
-1.4891878	50.1939170
61.1322360	55.1540790
72.3415050	60.5527600
96.1720410	20.0716460
-6.1994023	-29.9627070
57.1355720	21.8663370
95.2915630	71.1764230
-42.1320110	7.7045229
94.6237030	61.0380130
31.0726440	-77.1869950
106.1495100	-36.1157610
-34.7659360	3.8663289
88.8455090	-76.2357920
51.6751520	-43.1563360
63.5791990	53.8395790
-30.2219090	18.6913330
62.5726010	-79.1536020
80.3003710	-69.2500010
13.3123410	-2.1363101
-10.7554140	51.3346380
92.5346070	-78.0779840
-36.6177370	35.7841200
16.2808740	11.9999080
103.2647200	-50.5028450
-46.4869800	-83.1834910
27.0904660	-48.2591950
8.9679496	-7.2030010
59.1980060	81.1008860
62.0963360	-41.5899650
-49.7448080	-59.2485560
35.0956090	-62.3201980
16.5602850	60.3333860
73.4827950	1.9590057
-5.1795592	-67.6303470
22.0620810	51.0713020
7.7234386	2.1815122
108.3038400	84.4025710
85.6844490	-84.1226760
-24.7653840	48.7000140
-28.3474540	-75.9252760
71.5944840	19.9316870
35.4424140	54.8938090
-36.0150710	-54.9157260
22.2300580	-22.9300100
66.8600150	4.3470356
-37.6486010	-54.9207820
49.2425000	42.9221720
92.2152730	16.2737610
107.4566600	53.2393680
31.9803020	47.6866190
73.5220670	-49.1945490
51.5739030	-67.6674840
-12.6040960	-32.2909800
-20.6732540	37.3344670
108.6727300	-0.3709398
108.1227900	59.0730310
49.0946690	20.9703640
106.5619500	2.7258923
80.3005210	-23.0763430
-14.0159290	12.2105130
-16.4823700	36.1831420
75.8969230	44.2961600
30.7006930	-65.8013760
24.8119030	3.7090681
92.2657410	64.4190980
-9.7570523	-20.3265630
85.6793870	24.5684760
-52.6746270	-41.0759190
20.4036400	-21.8043420
-1.7505500	24.7811540
20.3221380	60.6247170
52.5365610	-65.5235410
-21.2002140	-16.5930590
71.9400520	53.7375310
85.2595430	48.7954250
43.7829180	69.7232250
-37.2889040	-1.4833344
-13.2069770	45.2820460
15.7088860	-37.9652620
44.3612070	-78.3603820
-44.6191210	-14.4625410
-10.9910140	-2.4237147
48.9990210	-54.0340100
-42.5112970	-25.4283520
-46.5507500	83.1410740
30.5263940	-0.7185835
2.6232480	-12.9884570
87.6428980	1.9364062
47.4791240	-11.6034760
12.7230280	-16.8526680
-63.9426320	30.1028630
95.2679800	22.8557970
80.4908720	-39.6512850
-17.5040290	60.3673760
56.6000440	5.8315480
-38.0425590	7.9342639
38.7770520	-15.1292370
-40.0444820	49.3226160
-21.7638800	-64.8134970
4.5156218	-49.4468650
-65.5896140	32.4465100
13.5358730	70.2580250
19.9212500	82.5376080
27.4816510	59.7699820
55.1319700	24.6921780
-17.9008580	-1.0080125
-4.9308768	8.9190560
79.3705810	-46.5038410
-2.6501111	28.1363350
-17.3024510	-37.7628600
75.8199250	-50.2602160
-11.8233690	58.1729310
86.1637720	-61.5615320
91.1149810	55.7592930
-54.4150310	14.2051150
25.5994020	72.4941250
38.3306680	17.9740580
27.2762250	52.2983040
28.9206980	-71.8959780
48.6812640	-22.5673530
-32.1064310	26.3690220
25.4186240	-70.0354600
63.4328780	83.2235580
-44.1541650	-82.0140800
73.6230270	26.0887260
-53.0102080	61.4555560
-57.2697680	-11.7449400
-10.0902460	-12.9162580
79.7531330	-49.0806320
41.0554190	-29.3433870
101.8208500	44.9950810
-48.7041740	-78.6308520
-14.8051850	-43.2450710
78.1177360	-31.2200430
73.0960840	-80.0182400
78.6022830	-36.7436350
63.6690400	15.5576670
-49.3711600	70.4036110
57.8020840	-31.7264370
-12.7999810	70.2341140
73.4553240	-16.3639720
-35.3835460	19.8525610
53.8990710	-67.3788560
-40.0521530	29.8452390
-21.5637640	-51.1410980
34.0841750	60.5304760
-29.2610340	-65.0454560
73.6480470	-26.4685020
-7.4873128	-9.3520231
-39.6570250	21.7372420
-29.2626520	-33.1224190
-13.0883680	63.3203920
52.6264030	10.3152960
75.9366230	38.9285140
43.8598110	-42.6293540
-55.2433360	56.8295850
37.7811520	-81.1722180
60.2100260	52.7809450
55.6561330	10.9113750
30.1262000	-71.1981140
65.7811370	-20.4659520
-17.2248000	-54.2374480
37.6916590	49.4394250
5.8178835	-17.5188160
60.5279280	-58.0989900
56.1535130	35.6261610
91.2426500	-43.4674960
-21.6814690	-23.3592830
33.0589080	-15.8431890
77.3603640	-22.5295650
79.5047390	-59.5658620
-44.8154020	38.9191190
60.5248370	-82.3380920
67.2462390	-52.9251330
-20.1955320	-80.9801330
41.2621770	38.7515830
96.6681750	-65.8734370
-43.5035990	-43.9459650
-1.6364339	-25.0237650
51.9689290	50.9926650
-14.1849580	54.7606530
52.8567310	-73.1883460
80.8731680	21.8020420
-40.9148810	3.5655628
66.0520620	-71.2485990
-12.9941670	59.9852240
55.8654430	-59.6962630
-46.5469050	-65.3197590
-60.3732550	0.0556472
44.2723460	44.0943470
-57.9020650	10.0631220
36.9738310	11.7384120
3.7557841	57.7070160
-50.6077540	-21.1199940
74.6926270	34.5113000
-50.2065080	-68.2930630
-1.2554871	78.2609000
37.2651370	-4.7581116
28.8254470	-61.1367210
-59.3619570	38.4744680
74.1773390	-70.2930760
33.2005330	82.0567380
38.0364520	-52.1038070
-38.7138240	49.5455610
-35.9144180	30.2594970
-49.1412740	-33.1598480
-7.6078196	-51.8149540
-22.9621980	37.2168770
-3.5629165	-83.3956340
-64.1083720	-52.7636820
-1.5006069	79.3420040
-30.1423410	56.0829560
87.5352770	-44.1002400
36.6601960	41.0917180
-24.0972240	72.9306200
-42.8345860	-22.6415200
8.5058474	-3.2032994
37.1331000	74.8079890
55.9087770	-20.9270950
93.3414340	46.8829230
49.7516110	66.3802040
-3.8096377	-33.9140950
1.4162513	27.9680650
40.5362400	63.6508150
28.7142910	-45.3746250
5.3068678	-4.0779208
59.0725780	-25.2135020
-19.3340750	75.5487990
-8.6583332	-2.7625298
5.3268276	-54.9809020
-51.2550110	-54.0094510
-66.4349220	81.5397660
7.0175195	32.1297250
-32.5705860	68.4732670
-47.3221780	32.9058680
87.7791650	-23.8453910
16.0589600	46.2500200
-13.4837400	-56.1013500
41.1876220	45.5677120
-65.7205940	70.9514500
-72.7144690	-37.2562530
71.1822960	61.2581840
48.7841740	-81.0036030
42.2812970	-43.9908520
-42.8114230	11.5414670
7.5192806	-58.8655290
55.2534230	43.7235740
-27.3351770	-44.7368310
-62.2037990	58.9393400
27.8925940	-50.3544800
15.7696250	-73.8148690
-27.6339720	38.3361460
56.4086110	14.3970610
-60.2121120	-78.5037980
40.6925770	7.5290776
35.2860750	35.8003200
10.0886320	-27.7490610
69.2294960	55.0500770
-26.7141330	15.2991260
-48.4238310	-25.6846210
-14.8337300	-72.7966310
73.4593070	-40.2275550
72.4993680	-10.6740070
-75.3741410	67.5969060
27.0982830	26.7961490
6.9185602	74.5662340
-34.6282740	61.2822190
-24.6829460	49.6698840
-71.9816960	0.6855505
15.0451750	53.4814960
-43.0608060	-58.6730990
68.6915520	74.8411570
-59.6612030	46.8563850
74.9569900	45.7827330
-41.7663050	-4.6356482
-44.7969750	37.7302340
-70.0182810	40.1750780
-28.3861430	-71.9294350
-37.6616530	-67.3601360
-53.6613410	25.4221960
74.6797140	-47.7287220
71.4155460	43.4872960
-2.1581821	-36.3680120
16.6658440	48.5955970
48.0001510	76.7171450
80.0294860	-45.4569990
-18.3375420	60.4156410
57.0343980	-35.6445730
90.1352020	-44.7501450
93.1220760	-67.1782870
7.0913805	-10.7284540
78.3504090	-80.1276670
38.6168550	32.5706900
6.0277033	-8.2063564
-35.4358270	22.7186890
-24.7267010	-4.8871942
31.6426900	-84.0535320
66.0281550	-11.7367830
3.0558344	-26.2287920
-30.1721780	-39.5078800
18.7366840	19.6920660
77.0497080	-42.9092690
87.2915120	-23.2992200
-71.5342800	-57.1477540
-40.3561260	20.9585020
-15.7503370	85.3403690
37.4323180	-55.0933600
28.0562360	-47.7042090
-52.5551410	-19.9192770
73.2246480	57.7425890
54.9591440	47.4368780
5.3483841	-68.0182870
59.8158040	30.7152930
43.7080430	-3.2915757
-59.7958290	-20.6338250
-61.4862460	-12.7951950
-11.2746870	78.8331300
50.1335170	85.1784270
78.3341800	83.5689060
43.0893710	26.2008580
79.5124050	-20.0459140
-66.9538050	-77.2169740
51.8150210	84.7730890
76.9243340	-32.9847490
39.3560120	-1.9055495
38.5638280	-24.8717880
47.4030720	-38.2098200
85.7126080	79.0945820
86.5556820	53.1505030
-52.5870620	-14.0887800
14.2991560	20.7950870
25.3016560	78.7482370
66.1219490	33.5472890
-0.1749226	-77.8135150
85.0709940	13.0515590
-42.5110480	-61.7505090
12.8486860	-2.4808816
-71.2115540	-77.1464740
-8.0073576	61.9533100
70.9117050	-80.1322580
-62.2386250	-21.4520560
41.5440210	-31.5201750
53.5709730	-38.4486140
10.7953200	34.3469240
37.3197120	-34.7677100
-48.5007630	24.3101500
-44.9149020	20.7139030
84.9498270	-79.1165330
46.8649810	-24.7552750
-76.7656150	-29.7312360
5.3654029	19.4250870
7.8039362	74.9964460
73.2639010	6.1112067
21.8460840	-28.4447320
12.2339030	13.5148720
-61.6044080	-34.8510730
12.2984820	-74.3409340
41.8259280	6.2758192
50.3034790	-26.9785040
-28.2135470	-41.3405310
2.2308082	62.9241520
8.8950948	45.6864520
-21.7462360	-10.5640790
17.4544800	37.3475560
-72.9830500	-6.0570124
23.9873220	9.8541577
86.1674840	42.6658070
-47.1885960	-2.8966688
55.5027280	5.9270463
-28.9414760	73.5537690
41.5694600	-9.2324446
-6.8316093	-13.1851170
-74.0204100	-42.3640130
77.9199400	-73.0756330
-5.9591706	-12.1592560
-7.5633318	-77.7276200
-41.9950150	37.8614760
39.2992410	54.8240010
12.8067160	-34.1109420
55.9201740	33.4013370
-77.0909990	65.0693260
-68.9725230	50.4527780
-12.7244120	71.7783510
-74.1964250	-20.6100670
-50.8935910	-25.1065510
24.0134500	-17.5672060
-46.8391710	2.0135138
90.2605260	-64.9922600
-17.8305860	-26.8661820
-26.2306690	-29.2452000
-12.1067740	47.9790330
-41.5121390	67.8855290
77.2664300	5.4096967
48.8932670	70.9451100
38.2660850	-71.3494990
-7.7188187	61.4720030
63.2402900	80.4349190
58.2316430	34.0909900
-43.7941990	-7.5188905
-22.5624120	-53.4782900
-67.4112950	-17.6669970
84.1721260	-7.2395187
-55.1177890	-55.0226540
48.2261880	-1.8566602
-34.6103540	-6.1705809
-70.8855340	-69.5361480
9.0482145	-18.5770390
-7.3004212	53.0933110
89.4403830	68.3812500
27.6415210	-26.4316270
12.0185510	23.0977150
-80.1147080	-78.7281800
23.9739940	-12.6997380
83.4517420	37.5817040
62.7604220	-37.2394060
5.5293080	-41.4483230
72.3708270	-57.1271000
-26.7688230	50.6149550
-40.1189610	76.1977720
-31.9802150	50.2556570
-13.8155390	38.2514560
-27.0429360	18.7835800
55.0281980	22.5575010
84.9464340	-84.4346790
64.8787920	-82.2327310
77.1152980	-63.4285590
19.8649430	-52.6171890
-19.9358110	-9.4962383
80.3465110	22.5277390
-50.0029710	18.0381980
-43.9416080	-72.6303820
23.6956280	48.5503040
25.9075830	37.6474820
-26.7306680	-23.1860010
-37.4401510	-55.2291780
-19.8664290	41.5091900
84.9144020	27.0891930
-28.3254180	-20.2159160
-22.9961520	43.4309060
-24.4573040	-22.7468480
-45.6272750	37.4589230
-22.1588860	-83.1323720
76.4179090	4.0116360
-29.7119510	16.8864610
-65.4936620	25.3911060
44.9270300	-63.1343230
-27.8756580	-33.1681510
36.4013030	59.1432100
62.6286280	14.7113050
85.6967670	9.2405880
-57.6748140	28.7264260
32.1683620	0.5619273
-76.1357090	-35.8857990
-70.4803070	-13.9225330
-3.9649170	5.7009013
54.5230660	-40.1449860
-66.7693590	-44.0634630
55.6740400	-0.2165704
-76.5519050	-32.4914010
-49.6189200	-19.4268140
-30.9690270	28.4734020
57.2437420	67.3695790
68.5121050	39.7565850
-41.4362170	35.2421720
-27.4417760	69.2131060
61.7977770	-48.9448560
-43.9425990	-14.1271230
11.3979550	13.3739980
-6.9791223	-42.7445420
88.8828200	-16.6654690
9.8998073	22.0949180
27.8739690	33.3433980
29.0515620	69.2792440
63.5793730	-48.9608010
-64.0783780	48.6796950
-60.1286520	75.4128290
17.6829920	-55.5679520
69.6229150	-42.5127190
-15.6557240	55.9917080
-17.0483620	28.4447780
59.3283720	25.9539190
16.1490370	-63.0154120
-25.3928940	81.3156710
-27.6306310	-9.6281674
87.4221140	79.6875860
53.4288990	56.4434560
-69.5874300	28.4841100
83.1508070	35.3979060
