jMRUI Data Textfile

Filename: dataset15_nWS.txt

PointsInDataset: 2048      
DatasetsInFile: 1         
SamplingInterval: 2.5E-1    
ZeroOrderPhase: 0E0       
BeginTime: 0E0       
TransmitterFrequency: 1.2322E8  
MagneticField: 2.9E0     
TypeOfNucleus: 0E0       
NameOfPatient: dataset15_nWS
DateOfExperiment: 
Spectrometer: 
AdditionalInfo: dataset15_nWS
SignalNames: dataset15_nWS.txt;


Signal and FFT
sig(real)	sig(imag)	fft(real)	fft(imag)
Signal 1 out of 1 in file
49893.9220000	-8.7865049
49715.9090000	5.2701378
49499.1250000	19.9304450
49214.1250000	22.7293910
49002.0330000	7.6595257
48741.9620000	-29.8591240
48588.4330000	-16.3127360
48296.8740000	20.6621980
48122.1630000	-61.0290040
47887.4100000	16.2080370
47605.2770000	52.1789290
47428.4920000	-8.8354510
47133.0950000	-10.2237380
46931.1970000	0.8314689
46713.7410000	39.9407020
46580.4150000	-1.0121969
46366.5420000	-63.2127860
46083.8250000	-28.1273120
45836.7340000	-38.8572650
45631.3480000	36.8377520
45399.2750000	39.0241550
45226.7650000	54.9779630
44989.7830000	51.1098620
44771.4970000	41.3926550
44565.9730000	34.7578610
44412.7460000	29.4840970
44124.5690000	-31.0889180
43987.8870000	13.9718470
43734.7770000	-52.8750370
43506.0090000	-63.7287560
43363.9510000	7.0305812
43144.2490000	35.1464820
42915.5750000	32.0839150
42777.5650000	-14.7876150
42528.0220000	62.6948350
42300.0540000	-58.9413430
42199.1440000	15.4375280
41995.7770000	-25.4241740
41696.6370000	-49.8157270
41591.8620000	32.5632070
41330.9390000	1.4281438
41220.1110000	-17.2897600
41024.4510000	-37.0373930
40774.3600000	-31.9593220
40545.5520000	14.2121120
40438.6100000	-55.6430200
40261.3760000	4.7631688
39979.9390000	-48.8806420
39833.2220000	63.2321800
39650.6620000	18.8497010
39478.1630000	-28.8949120
39267.8670000	-42.6734180
39071.6920000	36.5509260
38909.2290000	26.1383520
38666.9890000	44.4545900
38492.5690000	-46.5401020
38315.8470000	-34.5959010
38189.1030000	-48.1203350
37967.5580000	62.2657610
37781.5330000	-21.1630830
37667.0730000	-61.1535110
37518.0680000	-41.4083170
37338.4320000	-0.7848370
37138.0160000	1.1028943
36968.6510000	-22.8754580
36702.6550000	58.1250130
36523.6990000	-27.5409530
36422.7760000	-53.5565580
36205.3270000	-10.5002500
36088.2850000	43.0031170
35850.0550000	60.1303500
35697.4930000	-4.3688365
35605.0090000	59.4317010
35371.0530000	-8.1521007
35176.0060000	-53.3492740
35029.7360000	-27.7865000
34874.7480000	8.7792616
34688.0130000	-54.7244090
34620.2000000	21.0233790
34403.3170000	-50.2117320
34211.8490000	-34.8254860
34144.8060000	-18.5479490
33944.5610000	51.8313890
33772.7810000	36.0386920
33600.8070000	-11.7243060
33404.7920000	-42.9907090
33345.7680000	13.5866850
33118.0770000	10.8315780
33024.8810000	-57.3229800
32765.7000000	30.5347600
32718.0670000	-43.7162910
32465.3760000	51.7055210
32382.7330000	24.3098280
32216.3430000	-49.6239250
32108.3190000	-35.5887640
31969.3830000	30.6997180
31709.0920000	33.7660200
31657.5180000	-12.6473390
31495.3700000	3.7291723
31275.8790000	61.2742170
31212.5830000	-20.7977270
31002.3650000	61.2478050
30895.2690000	-29.1556290
30784.7430000	5.3499260
30547.6000000	-46.0300200
30489.9120000	16.9052210
30253.7460000	-8.9139042
30165.2930000	-57.7606270
30037.5040000	47.4533450
29900.9160000	-40.7023290
29738.1900000	-16.4370470
29531.4750000	-10.8368260
29486.6260000	-6.2082090
29349.6460000	60.6119680
29186.7790000	50.4595640
29045.7020000	20.6995870
28919.9080000	50.1565690
28713.0980000	-8.6856758
28585.2010000	47.1785110
28439.9960000	-5.3030860
28349.7640000	-5.2775312
28242.4840000	-57.5860320
28064.1350000	-55.8500010
27963.6680000	-6.7096739
27865.6890000	-60.9543690
27677.9230000	0.1368852
27537.8520000	-62.0622150
27495.6940000	25.1051720
27362.9560000	-33.8247660
27132.3070000	-30.7157160
27083.8500000	37.8916410
26893.1490000	19.0162450
26778.9270000	-41.8746420
26735.2930000	50.2058320
26490.5310000	37.3684790
26378.4920000	29.0478910
26345.9960000	29.1320560
26229.6100000	53.3243400
26119.2360000	-18.4108830
25872.0130000	40.0500520
25791.2760000	-37.7461080
25713.2130000	17.2270830
25613.7590000	-3.3639469
25465.7920000	-62.0297670
25316.1560000	-60.4519880
25190.1920000	-49.7060640
25135.4070000	3.0638278
24993.8410000	5.0337749
24870.6830000	2.6081775
24759.8130000	56.4472060
24568.7890000	-29.1867410
24489.7580000	-27.8620650
24412.0540000	33.8892410
24253.4730000	-17.2345250
24138.5480000	6.2439441
24006.9020000	-56.4082810
23978.9990000	-34.1714660
23799.0810000	41.4209430
23738.4790000	-17.5865490
23652.6450000	-55.2607590
23533.8010000	-22.1581940
23322.7160000	46.8649180
23310.4950000	63.4466700
23168.4740000	26.5992200
23083.7320000	-7.1798029
22908.7950000	56.3390350
22858.2060000	-19.5431670
22697.7980000	-34.8843100
22565.8540000	-56.0567800
22552.0460000	-31.7556400
22350.1970000	-59.4502920
22305.0560000	34.2766860
22223.1850000	53.7787420
22032.4480000	50.2924230
21941.7350000	7.4074062
21917.7120000	61.1571110
21840.9800000	54.0354850
21680.2440000	-21.1222980
21598.4580000	-9.3235889
21418.9700000	-16.7484390
21407.5690000	-0.3630537
21247.9470000	35.1254160
21165.8850000	45.8252080
21015.0190000	-27.3273970
21037.7040000	20.9241310
20865.2160000	34.6238990
20805.7330000	55.9598380
20661.0180000	-63.7321850
20648.8000000	49.7936560
20497.3460000	-55.9156910
20365.6470000	34.8292900
20253.7400000	7.3167453
20238.1050000	-23.5612790
20151.4150000	2.0958240
20002.5460000	34.5050330
19974.0700000	25.0452280
19875.9400000	60.5057150
19710.9810000	35.0281650
19598.5860000	8.4217495
19499.7190000	45.5559360
19498.5990000	12.8532660
19337.3150000	44.4610060
19220.5470000	-55.6047540
19133.4100000	-30.0067760
19064.2910000	60.1029130
19023.1380000	28.8015440
18946.3820000	-32.7331730
18798.2860000	23.8325340
18749.9080000	-31.5850120
18694.2800000	59.9412480
18622.8310000	16.4673230
18500.9230000	59.1031400
18390.5330000	-19.5737020
18253.3780000	56.0129790
18247.8130000	18.9567600
18161.7830000	-14.7204440
17995.1970000	-29.3212760
17934.5220000	-34.9375650
17824.1550000	-58.5752640
17853.1490000	22.4588520
17749.5660000	29.7019330
17684.6460000	-20.5142100
17566.0310000	0.1426650
17433.1860000	-45.7032940
17411.4560000	47.3412270
17240.5680000	-54.7897410
17229.7190000	16.2081390
17108.6630000	23.9997620
17035.4140000	-28.2308810
16948.2800000	-15.2890490
16942.7800000	-62.2826650
16864.2550000	-59.3549730
16702.7000000	-32.8958460
16665.8390000	38.4672580
16570.4600000	8.1156394
16523.0250000	46.0319710
16453.3440000	-61.4788450
16388.1570000	-6.9381202
16299.6660000	36.5174970
16143.6440000	-34.7661100
16099.5980000	-22.0967690
16077.0430000	38.9159820
15921.7900000	33.8169400
15892.6600000	42.8758260
15875.3340000	-62.1966570
15792.0720000	3.2458802
15680.3860000	47.3835950
15636.4650000	-54.7878800
15568.3480000	28.8369190
15505.6410000	-37.4431320
15358.0270000	-20.1811400
15249.0450000	-17.6127100
15215.6170000	-11.2785360
15213.5960000	-20.6701660
15133.3230000	18.1445950
15062.2060000	-27.7018460
14971.2570000	44.7621320
14879.1490000	64.1353540
14772.9070000	-32.4297220
14709.9240000	-1.4566919
14714.9270000	-46.4893530
14542.0490000	-55.9799810
14509.9850000	61.6026230
14432.6840000	44.0027470
14417.8950000	21.6794610
14357.6970000	-8.1018817
14310.7930000	-37.4114080
14164.1370000	10.0607040
14086.2890000	-7.6514804
14103.1260000	20.4675450
14040.1220000	-41.1452690
13938.7940000	37.3999070
13846.0680000	13.6487390
13787.8440000	-12.5422100
13687.9470000	32.6559290
13708.2160000	13.3436720
13633.6350000	47.4551930
13567.6620000	-1.4476440
13445.2660000	-59.9178410
13439.0100000	47.3206740
13347.3460000	-39.4220170
13257.6450000	-35.7296420
13215.3230000	48.8610830
13161.6750000	40.3035930
13146.5290000	-16.3504300
12973.4940000	44.4707620
12988.1930000	29.9969400
12881.5620000	-20.5141210
12807.8630000	23.0613860
12754.9300000	-19.3666790
12721.0200000	-59.1765430
12726.3130000	-57.0384620
12587.4320000	28.6151100
12514.5970000	40.2017850
12509.4990000	-47.2435440
12402.5590000	60.5554790
12346.5750000	-60.0616320
12278.4820000	-56.2409710
12303.7390000	-31.6323900
12139.7180000	-51.7841930
12109.6400000	48.6168230
12094.2780000	21.8764100
12060.0640000	10.5700910
11950.2620000	10.0636090
11980.6850000	-38.1546040
11873.6730000	62.1613580
11799.9820000	56.3481460
11702.0470000	61.9363060
11708.1430000	11.3122160
11595.0470000	63.9836210
11548.3120000	-4.2490263
11579.6340000	15.7922070
11489.0090000	-60.5948380
11412.8210000	37.1738590
11373.9350000	59.7233110
11313.6100000	-22.5743120
11256.8590000	-53.9833490
11155.6500000	-17.1670230
11128.9580000	-12.5571770
11103.8490000	-28.8855990
11024.1320000	-3.1015937
11033.0310000	-58.6250940
10920.0320000	19.5842560
10944.5410000	-51.9715270
10846.5360000	-29.7309660
10761.1010000	15.3720260
10693.2500000	-20.4971440
10733.1810000	40.9324490
10705.7380000	-59.9911250
10649.4970000	46.9383440
10571.7020000	-6.4594982
10550.2080000	-19.3937710
10425.5450000	3.1609089
10397.1210000	46.7129560
10328.4470000	-21.0585080
10267.2530000	23.7689550
10188.6520000	50.7720260
10250.1410000	60.2869520
10212.2100000	27.9866990
10166.8160000	-16.2856000
10023.5680000	-60.0744100
10024.1350000	32.5258750
9952.3168000	-63.2658110
9917.9062000	-14.2300410
9866.8980000	-14.9741800
9799.4227000	14.6501250
9744.3773000	34.9776990
9740.4267000	-9.4749710
9722.6355000	6.5618677
9703.7247000	-59.2286350
9610.3445000	-36.1348950
9556.8110000	-54.0039940
9506.5029000	1.9397582
9412.1533000	61.8749010
9444.2639000	-41.7218420
9390.8000000	6.9930548
9381.8307000	57.9684460
9234.5677000	39.1332450
9212.8440000	48.4437970
9215.3002000	31.7326750
9210.3732000	-54.3867700
9094.0030000	-18.0495560
9040.6375000	-8.6300614
9001.4529000	51.1646760
8965.1250000	-17.5214450
8957.1096000	48.6211450
8920.4466000	52.7388110
8876.7235000	-37.3356520
8758.9158000	6.3148342
8745.5724000	-50.0555400
8727.8968000	51.5405580
8743.0178000	-48.2405360
8641.0248000	31.1283490
8597.0533000	46.7572850
8595.2841000	18.2787320
8491.1047000	53.7560850
8462.5846000	32.1170350
8482.7641000	29.4814890
8397.7070000	7.0806398
8321.2822000	15.8997110
8285.4930000	-63.5859520
8235.5928000	37.8702360
8241.2903000	55.1207610
8168.5782000	44.2175790
8133.1891000	-36.8269550
8078.0576000	-24.0600000
8130.5609000	-3.8832237
8022.5115000	39.8251210
7985.7330000	9.3303686
8020.3631000	-31.9358570
7944.1572000	53.6035000
7874.7950000	-58.0806910
7810.9886000	-1.5063428
7852.2712000	56.3049600
7771.7883000	-64.0892280
7797.5209000	-57.3215490
7780.2937000	54.0303860
7709.2816000	15.0001970
7635.4334000	-35.5532580
7626.4369000	13.9073640
7544.3525000	-62.2943210
7555.8757000	14.8436810
7487.7543000	-64.0082430
7425.2131000	-3.8517804
7429.6934000	20.1893320
7452.8114000	50.6738420
7377.3513000	43.7646520
7393.5006000	36.1328080
7303.6805000	-0.3831279
7279.2722000	4.2022260
7293.3893000	-47.7959890
7220.0041000	21.1597400
7200.4743000	52.4935710
7163.8591000	38.7691100
7064.1209000	-32.5110650
7106.3089000	5.6596319
6984.0698000	-19.7486670
7050.9417000	59.3649120
6969.2838000	-57.9817040
6904.6169000	59.5472640
6835.7505000	42.6425330
6913.3703000	-51.2719270
6893.1753000	7.9667320
6809.0823000	-16.7673210
6768.3990000	50.5181330
6739.3237000	13.9153770
6661.5584000	-27.1564050
6647.7690000	52.1609360
6656.8752000	7.3307248
6576.6633000	-27.8620920
6630.8915000	-46.6040710
6552.8076000	-36.4982740
6576.4281000	-32.0704950
6435.8320000	59.5459920
6476.8002000	4.9768156
6406.7693000	-27.9657330
6371.2737000	59.1276390
6343.0067000	-15.6935840
6290.7650000	46.6496800
6278.4009000	-51.3350490
6313.3387000	-23.9022300
6257.8013000	20.7972370
6215.3700000	16.1659250
6226.8182000	-48.0061020
6123.7044000	27.5333300
6111.1665000	58.1636770
6117.7985000	-61.2204800
6100.1445000	-4.3409927
6044.0234000	-21.8416100
6061.0863000	-20.3266940
6031.0780000	-55.4136160
5958.5973000	50.7696260
5912.7204000	-22.3891910
5919.0778000	47.8525260
5835.9264000	-5.2903713
5893.4347000	-6.1083670
5839.8868000	-7.1115130
5769.0628000	-61.2668650
5804.4453000	-42.0777950
5689.6885000	-4.4098612
5667.2728000	-9.3859372
5729.3067000	27.0555210
5686.1310000	-14.9783260
5657.2118000	10.0228240
5615.4660000	50.9553320
5547.8933000	54.7644370
5564.2028000	22.7399260
5505.5985000	-23.8330830
5503.7977000	61.9806410
5424.9694000	-58.5557590
5471.8521000	42.7269290
5393.4981000	-48.6994070
5415.9832000	31.6408070
5435.6678000	25.0818220
5377.9091000	9.7500753
5349.8770000	14.0142810
5331.0630000	-47.7541310
5307.1028000	-15.1635770
5219.7424000	-20.3944740
5211.9916000	-52.0104150
5220.0585000	-11.2016640
5170.8971000	21.3193540
5203.9081000	28.9534110
5170.4031000	-17.2106410
5144.4927000	31.7050670
5043.1125000	-37.3962570
5110.2711000	-24.9588640
5021.2085000	-4.7272527
4952.3219000	-6.1128768
4988.9267000	-35.6053590
5007.0187000	-49.0290400
4898.1584000	-30.8452120
4917.3548000	2.9570642
4863.4773000	4.3586741
4838.2406000	43.5471440
4822.0299000	19.7567940
4845.1718000	-7.6238232
4803.7882000	-34.5831440
4804.0147000	-25.2264570
4731.4940000	37.6932810
4734.6239000	-13.7722000
4750.0956000	5.0273954
4711.1134000	48.3972210
4654.0211000	-42.7553950
4598.9686000	-8.2075702
4673.8218000	11.9192340
4588.7085000	21.6427380
4564.2311000	31.9319740
4511.7801000	45.6458420
4596.5797000	-12.3365130
4511.9046000	57.2686180
4455.9774000	-10.5394280
4517.7592000	-20.3814010
4443.9929000	-15.3029680
4421.3258000	-62.1987050
4458.8045000	2.6521661
4348.7091000	-48.5300560
4397.6913000	21.9835180
4330.7361000	12.7398080
4272.3049000	55.7548300
4278.4678000	3.4895978
4269.2868000	-32.9638200
4204.8505000	-48.7558970
4207.9239000	30.6939870
4199.5656000	59.1076390
4202.0051000	21.2808250
4199.5860000	48.6014700
4226.4215000	-40.6028330
4208.5559000	48.4791450
4158.9998000	-34.1739750
4079.3581000	-26.1578700
4105.2798000	59.8892000
4054.5050000	-32.2569780
4091.8865000	19.2293650
4078.0365000	9.2750178
4020.0652000	-40.3024330
4036.8530000	10.0522160
4036.9263000	53.0083030
3914.8461000	-50.7635290
3988.7059000	45.3224970
3942.0653000	32.6974210
3893.9095000	-56.1724310
3916.6518000	-36.5645510
3860.6517000	-62.3700310
3875.0099000	20.2924520
3797.1560000	24.9726790
3796.2427000	18.1678640
3800.4239000	-60.0629150
3814.0384000	32.6827020
3716.5740000	-9.8712801
3712.9773000	-50.4365220
3771.5938000	7.3849531
3659.1986000	29.6150420
3694.3003000	-59.0053910
3659.6448000	30.7151170
3684.7791000	-2.3811461
3691.2082000	8.4334737
3627.3405000	13.4939450
3610.0112000	-35.7048560
3626.9624000	-59.4804910
3544.7457000	-56.9642020
3596.1696000	12.5877350
3480.9740000	33.4606140
3514.1693000	-47.1935170
3504.6124000	14.7231860
3544.9305000	-61.5335430
3458.1550000	22.7536670
3466.2006000	47.3587520
3411.1253000	19.3083630
3374.9270000	-42.6281050
3349.0452000	61.7766110
3448.4578000	7.2456039
3398.8654000	25.6357570
3297.6332000	-5.6455549
3342.8550000	37.0041320
3341.6419000	19.0067240
3283.1704000	36.5032380
3318.6523000	2.5641295
3240.3389000	52.6662280
3206.6634000	-49.9782390
3269.0819000	-13.8820390
3267.7047000	-28.2240830
3251.8825000	26.5393150
3152.7202000	-19.6581900
3245.6387000	55.6345660
3223.8116000	62.5106900
3193.5180000	15.1384030
3144.3820000	-16.9175460
3171.4724000	-62.4553620
3061.0643000	-28.4629610
3155.9618000	40.3579740
3101.2467000	-38.6309000
3007.4078000	23.7606900
3088.3121000	-4.9367114
3067.0868000	18.0006280
3024.3262000	34.9236790
2992.3788000	-18.8310770
2944.2718000	-22.5659820
2987.4812000	27.1073880
2986.9695000	39.2658830
2992.0210000	32.7424770
2989.8773000	-34.2693580
2902.0550000	17.0896180
2886.9755000	-23.1149780
2934.0754000	-50.8569530
2931.1842000	-52.0338920
2849.7254000	-34.4232620
2883.2288000	18.6916500
2892.6752000	-2.4836729
2890.4861000	-1.8079264
2799.3969000	-57.6964040
2831.1207000	-39.1464780
2804.7456000	11.5102680
2769.7268000	53.6784860
2776.8710000	3.7739105
2726.0834000	2.1233649
2761.4153000	25.3947020
2695.6451000	38.0823650
2667.2812000	-14.8636810
2733.4897000	-7.7049989
2722.7320000	54.6045750
2636.4961000	50.1603780
2680.7083000	-32.9006500
2627.8340000	12.8030370
2594.7586000	6.9678988
2637.1988000	-56.4023050
2672.4684000	30.2916260
2661.0312000	-50.1590020
2639.9285000	61.3133260
2630.8054000	-48.7228300
2618.0040000	12.5000540
2615.3508000	25.0634440
2510.0119000	5.3326021
2530.2981000	-60.3884810
2484.0545000	10.7380020
2562.4236000	5.4688861
2507.0773000	17.5863290
2472.9510000	-2.5595262
2451.0200000	-57.2984660
2462.2254000	-40.6155240
2487.9492000	-8.8933705
2391.9501000	18.3089800
2425.2819000	-18.9230720
2473.5416000	-59.8254840
2461.5571000	-30.0225790
2339.5967000	0.0874606
2340.1289000	24.5543270
2356.2650000	-6.6255424
2410.3088000	11.8651710
2289.7119000	26.2579770
2312.8340000	16.6825470
2366.7973000	-31.2507650
2282.8369000	54.7648630
2254.8031000	38.8465730
2242.0399000	-51.0227120
2242.5514000	6.4736927
2302.0047000	-17.7794380
2306.3681000	63.3170340
2212.8813000	57.3981110
2300.6562000	35.9420130
2221.2721000	-19.6671830
2226.4463000	-51.5943690
2199.4631000	-45.8665730
2172.9215000	27.1487790
2231.1226000	46.8965590
2207.7859000	-62.5003870
2173.5484000	7.1523618
2092.9189000	-14.5046430
2200.2581000	63.0033590
2160.1528000	-5.0167572
2110.5503000	38.0252350
2149.7936000	52.1917400
2060.8944000	31.7716680
2042.5439000	-18.9421350
2090.8029000	38.2807950
2018.9409000	-55.1166920
2004.6612000	-53.8884890
2088.1153000	45.0580880
1994.4654000	48.2918800
1976.3069000	-58.8066510
1972.5026000	-7.8364977
2007.7775000	52.3870150
1998.1948000	-49.3894760
2004.5314000	-39.2019780
1989.9132000	32.8792980
1919.7325000	9.5182693
1951.5746000	13.3220840
1903.2756000	25.4926870
2008.8168000	29.3723450
1902.6123000	57.1393260
1949.3681000	-13.9814890
1948.8360000	-32.3632880
1933.5476000	4.3054054
1914.0575000	-22.2578490
1933.4940000	17.6377860
1860.2626000	22.2732790
1919.6805000	-29.3637020
1912.3744000	-14.4962280
1845.3155000	49.7574960
1903.3181000	-32.1809760
1906.4419000	31.9053510
1885.2772000	-48.0125160
1878.7790000	-18.3982420
1780.7304000	23.2709180
1785.6456000	-15.4680300
1767.5158000	-29.6857620
1850.7480000	-9.6891604
1767.0756000	51.9213080
1791.1536000	-43.2074590
1784.9669000	35.6139100
1796.9949000	-51.4082640
1772.9908000	-12.8426610
1693.6547000	24.1671820
1670.2971000	51.2075310
1716.8239000	-31.6539940
1714.8296000	9.1888692
1719.9595000	-58.8040020
1666.4521000	13.9852210
1731.0183000	32.6230330
1729.4246000	-32.3604190
1714.2627000	19.0537700
1724.5205000	-33.2252960
1625.5895000	-58.0325130
1659.5307000	-20.7889570
1641.8666000	6.0570990
1630.5931000	15.4010400
1598.0826000	-62.0891940
1654.4118000	33.0106060
1610.1957000	42.6530370
1633.4579000	26.8414610
1555.3108000	-21.3990480
1562.0972000	4.1585386
1582.8479000	-3.4196649
1571.1040000	-63.2144280
1530.0543000	-43.8404380
1512.2931000	62.7469280
1558.7484000	25.8148550
1495.6555000	16.9025830
1550.3933000	-36.7427920
1521.5940000	8.4875825
1471.5702000	11.7973650
1554.8337000	45.3285010
1523.7001000	-46.0960990
1565.9545000	38.1841500
1507.8073000	3.7619850
1429.9192000	-63.3515740
1440.8431000	-63.4314290
1444.4474000	-59.2273760
1498.7297000	-49.3868720
1413.7968000	4.1520285
1517.2418000	23.0320860
1492.5820000	-50.1177900
1380.4892000	39.3115440
1459.3217000	7.1413165
1464.9156000	43.2781060
1475.3668000	-38.6913900
1386.5962000	-2.6068534
1384.2414000	19.2677860
1445.0516000	63.5838840
1359.2201000	19.0831110
1422.9399000	2.5100315
1388.4328000	-38.8248850
1374.4559000	-24.0159830
1324.6207000	-0.4116993
1317.1983000	-14.1188780
1420.9288000	6.4412925
1300.8247000	-15.7889000
1366.8645000	55.2419620
1352.1863000	0.1554763
1338.0687000	59.8079130
1319.0475000	49.6647510
1280.7431000	-34.1241810
1317.7900000	16.2295970
1292.8957000	34.2766350
1348.7150000	-60.6591800
1338.9540000	36.1635320
1344.4757000	-8.4651759
1330.5165000	-9.4913501
1302.8649000	56.0307210
1290.2244000	-57.8087960
1274.5173000	6.5661633
1321.9812000	-27.2296510
1224.8134000	15.5117490
1203.3491000	-14.4960950
1208.0868000	-16.2324930
1222.2688000	59.0080660
1183.6553000	-23.9463860
1213.9130000	-1.2209826
1211.6202000	48.3805910
1197.8721000	-11.4466430
1209.8338000	8.3810087
1221.1996000	10.2475670
1183.5990000	63.0361450
1244.7019000	-52.6402200
1233.7350000	42.2305380
1179.4204000	39.6834990
1146.2475000	20.5375850
1148.1088000	57.2174480
1125.6812000	-20.3942800
1144.8725000	38.7409350
1189.9006000	-43.4889610
1153.8657000	29.0622850
1147.4070000	-22.2908360
1075.6112000	-29.9562420
1169.2771000	38.5162280
1188.1556000	20.6269910
1075.7152000	20.3112740
1158.6268000	23.8781290
1144.7449000	46.3329570
1149.3903000	19.9863560
1141.4377000	38.0133830
1073.0591000	-11.3611480
1048.2921000	31.2428240
1129.5763000	-36.7586110
1112.9087000	-48.6916160
1041.0586000	25.2380690
1068.3904000	-35.2145570
1094.9065000	-60.8833660
1021.6788000	-31.8798800
1007.1207000	38.1909040
1066.8642000	28.3978150
995.5612100	56.0308310
1001.7427000	58.5755750
988.0812800	13.7027500
1047.7419000	-34.4389110
966.6598600	57.6376410
978.8122300	-30.4310880
1015.3062000	15.5499680
951.5340700	-21.4925010
991.9298600	-16.1198990
1039.6271000	-5.4149738
1008.6358000	13.7234560
995.6263000	17.1935440
937.2704600	12.0059460
988.1558500	30.2316350
1028.0103000	-50.5272300
909.5007900	-20.9843640
903.9717200	-40.8521260
952.4954900	-40.9069580
999.8377600	38.2628390
907.5676400	8.4804658
982.4463400	-59.7124390
888.3627500	4.2622783
920.2639500	49.8880680
884.3017100	-43.2351030
930.3130900	46.2791910
877.7753400	-44.3322430
938.3826800	-29.2717470
901.6109700	-23.1684380
955.7977900	-19.8743360
906.3324600	16.4404600
921.3199300	39.1241360
964.1836300	63.1811930
854.7307700	53.5432000
924.1128400	4.2983498
867.0682700	-19.0917070
848.0425700	36.2690470
817.1164700	-20.7603470
934.3885300	-26.5724250
836.1610900	-21.2695340
860.0424100	17.4580990
902.4777400	25.4744280
906.1954700	-47.9953750
818.8921100	-10.8290840
885.2145400	23.2735440
909.3448100	7.9241522
858.6299800	-28.5927320
821.3956200	53.8216280
781.1313600	22.9970390
836.2802600	21.4069790
859.5685000	20.6104260
858.4846400	54.4183790
805.2614800	22.5156460
868.0544800	47.6578120
817.5510700	-2.4049091
865.4653700	-17.3577340
740.5916500	-58.9919950
792.4029400	-54.8618720
767.9009600	-32.4651330
808.2098600	-8.1151625
810.6637000	23.8346610
731.6004200	40.8364820
798.7186900	-17.8720810
815.1292100	34.1167140
746.9853300	35.1150670
748.6766900	9.9906738
773.8928100	16.1190430
782.3767500	26.1004110
823.3418100	-58.3321700
708.3447700	9.3132107
809.4771600	50.0445450
717.1451300	54.8563230
699.7405000	-11.3909360
797.3986100	-21.1263320
746.5544300	10.5758280
696.4939100	-61.6222710
734.9276900	45.6136340
706.8668800	-43.8233940
768.8812000	-50.6357650
778.5291900	48.6150740
712.1932800	7.6043106
726.4972300	-20.4780000
751.9617700	0.6787321
748.9444500	-23.0820470
659.4501700	-61.8923760
687.2035900	35.0955870
731.9335800	-42.7857960
709.0811800	7.5627323
657.1888100	-42.5787180
690.3677700	27.9625120
658.2205400	63.7780910
635.0185700	-28.0064630
741.7460000	-13.5696480
703.0610900	47.4165210
712.4160600	24.8841880
626.2037100	57.3380610
618.5090500	-55.6020980
609.8545100	-46.6347700
617.0378100	-9.6932195
651.9581700	-16.4971930
692.4900200	-46.4790840
664.5831600	-8.8083574
699.5336100	6.7918315
645.1816700	-5.6900135
650.6713300	-45.4246770
637.6946800	44.1590310
617.8722700	15.0904200
577.8926700	-14.6902400
631.8411600	-21.8197630
602.3831600	-33.0215010
586.1273800	-40.8197800
633.1583500	62.3128820
591.8580500	-2.6116660
553.5337200	-63.3179140
651.3820000	17.8208020
608.4944700	-41.2712690
656.6095800	-0.8230679
616.2602300	6.4534005
637.4196600	42.3807520
547.1732200	12.5310580
594.2294300	-10.6489940
566.2623400	-47.3510430
583.8644200	14.4286880
545.0725000	29.6372520
522.1134200	-35.0450700
609.6938300	-8.2577315
548.5625800	3.9031900
621.8201200	27.1949370
517.0288900	44.1107260
520.3909300	-12.1789040
537.4600900	61.4943950
502.5218100	-32.7968240
528.8613400	-40.9659210
536.0189200	-37.4009690
542.1115600	-62.0317090
578.9847400	15.5204580
549.1460200	3.8275039
577.3730900	5.5386572
550.6768500	-30.7057330
590.6375300	-63.5611840
543.5294200	35.1123270
550.8222000	38.8741220
594.2098800	27.8625240
504.3995800	-24.1127040
470.5972500	-55.2594750
530.9680300	-35.7958850
503.1897200	45.8966250
581.5767400	17.9645540
457.8852100	-56.7158630
548.6248200	30.8646430
495.1849800	4.6919576
487.3356600	53.2030230
561.5762100	-45.7234600
568.4137500	35.7267090
547.2967200	8.5850987
467.2852400	27.8849170
525.9955500	-12.0695700
482.4450500	7.6809637
561.4536500	-52.2762890
558.1638400	-26.8641210
520.6535500	-13.3909220
520.3723800	-36.2577630
474.5565100	-56.4376700
443.8484700	-33.5202340
480.3201700	8.2783443
484.5298400	-16.6272140
441.4348700	-25.9407660
419.2719300	58.1942350
431.7025900	53.5771450
471.2393700	35.1893010
500.3263600	-47.8946280
404.3143000	30.5587140
507.0658600	18.4548570
487.5711000	10.7009330
430.8090500	-50.6439800
476.6463200	35.8467960
414.1585900	2.0578380
400.1361100	57.4126060
467.8768300	27.3311790
416.4066200	1.1699769
399.0063400	-26.9186570
509.1256800	-48.4864760
440.6837100	11.1715530
409.3047200	-38.3460010
400.0300600	59.8157540
434.2478700	30.7321410
440.6817300	53.9719310
466.5366300	6.6609626
456.5227100	-37.9236410
376.2576100	1.0833328
452.2835700	-7.4741281
396.3540500	-10.2615740
465.9854800	18.5180070
478.2849600	-11.9562640
394.5951300	56.5135220
403.3691500	-27.4121020
422.8476600	-15.6069480
430.4245400	51.4554370
428.2844900	52.5752200
428.6586900	23.4413870
422.2090400	-19.5234220
416.4574500	42.7714580
439.0429200	35.8080470
380.1885000	-32.0111510
446.5124000	42.1662460
423.8547600	21.4049850
390.0032300	15.9932780
423.3271400	10.9203040
423.5463900	-43.3707860
355.0228200	5.5750885
421.1104600	-8.8067385
368.4837400	8.3033861
398.1393000	-29.5345380
378.5067600	-11.3464420
340.8529000	-2.1275151
424.7651300	-37.4047500
403.2142400	34.9576740
365.7985700	-38.6552340
318.5267200	59.7650440
366.4493200	-40.7338110
422.6651400	-10.2494570
308.7355300	41.9410320
409.0181900	2.7155744
378.1120800	50.9420320
412.3983500	-34.1599260
389.9728500	17.7431140
347.1255300	28.2896040
336.6669400	24.3800200
330.2510000	-20.4958180
396.0793200	62.1180840
345.9210500	-31.4229800
360.2496500	-52.0560300
411.6071200	-47.5623940
335.9644000	13.2757460
400.3520500	-55.9572540
362.2111200	21.8586530
302.4311300	26.5724640
348.8032800	12.3004260
368.6925400	30.8321090
365.7534300	-38.0814130
364.0430200	39.0960710
346.6371400	-18.6139870
282.0798300	-40.6147690
386.2462700	-60.5960290
306.4642300	4.5036900
278.7304600	-26.4320810
351.0827100	-30.9007220
345.1687100	60.1899940
361.4473700	-38.4537360
317.7408200	-60.2369310
309.6506000	32.3094360
273.3055100	0.2918413
361.1781500	-19.7457320
266.1550200	50.8294790
364.6473700	9.4036983
349.6530800	-26.0396750
321.8250700	-8.9933589
336.2478500	-5.2165908
340.7979100	-50.2419950
266.3323500	23.7186450
321.5398600	-28.4780100
247.5688100	34.5207260
283.2242500	-3.2870850
364.3883800	27.3120710
241.8557700	43.6492260
283.6040000	-59.4635410
353.5859600	-34.4056610
305.6277200	31.8023740
293.3348800	50.2527370
304.9618400	-2.5702014
288.3166100	-29.4275860
275.3775400	59.2753500
326.6968200	-33.1555480
300.8271300	1.2513058
278.7821400	32.2187070
251.0187500	6.1115479
226.5892400	26.7306400
281.1112300	5.8761823
316.0342500	39.6405810
232.0452100	-54.0410880
238.5461500	-53.5261430
261.3510800	1.0253642
258.9611000	62.7625390
304.0569800	-39.4212870
254.1924700	-6.9304184
318.9781500	-0.9656080
330.5884500	-30.5800670
232.7640300	56.1455070
214.9429900	34.5844710
320.3535000	-8.9913573
300.9725700	-19.9786900
212.2003300	25.6134180
311.7730700	-13.5505400
293.8882500	14.4118090
305.8219700	44.8870250
308.7872400	-56.1888040
322.5624200	-24.4226700
305.5082700	39.6631130
305.3483300	54.5649630
201.5131000	54.4494240
203.0566100	-43.2292840
195.8188700	-15.0065980
265.1547700	19.5221960
215.3316800	-52.3729050
267.2542200	-50.9927930
244.4632800	60.6063330
233.7898400	-57.2804220
297.3849000	-20.6130500
218.7068300	60.5491610
193.2179700	-17.6978900
227.8211000	18.4617300
179.1553500	23.7149800
184.4284500	-60.4277830
190.0591300	-27.8958760
251.3976100	2.5042689
223.3584600	53.2069990
283.2705800	23.0715970
198.9881100	-33.5342670
283.8405800	31.8157020
212.1066700	-17.9258840
199.7129800	-53.0268090
242.8879700	14.2564110
197.7147400	25.2161350
205.5931700	62.3096720
173.4139300	37.1206380
261.6078300	34.8906040
259.1453300	48.7563240
190.4462400	24.4737370
180.9592300	23.5774970
271.6277400	-35.4291210
271.2676500	-45.1701780
278.1352600	-9.2752291
167.7632700	36.3519750
194.7574500	43.2748960
224.7446100	-48.2887520
202.3007900	-1.6413478
181.8751000	62.2297990
222.8631700	61.3746300
181.1396700	-23.7146460
189.3901700	56.3934620
160.2592900	34.2925660
266.2941300	-36.7893250
219.7274400	33.9226330
245.9609900	-16.1882840
255.3798900	-12.2100060
206.8754400	-16.1081890
158.3338700	-51.8016530
244.9933700	59.7469170
189.2300500	54.8548680
181.9283300	16.6366310
146.1950300	29.7515050
198.3807000	8.1850904
168.8257600	-32.3086350
190.9174500	53.4703170
164.7236900	-32.8363380
255.1438400	50.2299090
240.9420100	-9.6456472
166.5136900	-26.7017230
208.6379200	16.5482660
240.9150000	-13.5382300
157.3578200	23.9891500
249.6983700	55.6619410
234.4950300	-25.7338970
176.7359000	-23.3091600
150.2734300	-25.8752480
249.1410600	6.6791244
134.2185900	44.1508050
226.9220900	33.4347500
229.5850500	58.4256570
146.3228800	-56.1193120
169.6193600	-14.8587610
218.6151100	-10.7325580
122.9880000	8.7777850
236.1796600	-40.6955100
191.1844900	56.3547890
230.9734800	-7.7693540
139.3641600	-37.5298200
186.7554300	38.7413800
196.8827800	-4.1626969
123.5365500	-19.1696420
216.2763300	27.3207300
226.6059800	37.9248730
136.7952900	11.9465740
231.0692600	4.9528049
137.1598200	60.7865310
157.0412200	-23.2866470
181.1314900	-41.5250430
170.6748900	-8.4451822
217.6797600	-32.8545000
205.7129600	42.3362830
166.0088700	-55.9251540
131.4161600	-48.6149600
175.9553100	32.8517840
113.0282400	-53.3790750
125.6387300	17.4124710
148.9334100	-9.6473823
172.4686800	61.5816610
206.9143100	19.4346850
152.2303300	-5.1455311
187.7484200	6.9372318
206.8086400	42.9308020
166.6943900	39.5314690
178.1044600	-0.4182471
147.0631000	3.7371462
183.2497100	-19.0115040
125.7938000	-28.3345120
111.2356300	12.0074840
189.2811200	17.5113920
205.8920500	-50.9085810
188.5336200	-36.3284770
136.5828500	-21.2720980
180.0943700	63.3971710
137.7641500	36.7987080
171.1568100	-62.8116430
202.1328400	-26.5876380
135.5750900	21.3550560
168.5168000	59.2900020
90.6026170	34.8560280
94.8675020	62.6979190
135.4982400	-51.5268840
137.2423000	-21.3200820
127.8691100	24.9847390
101.0835500	-29.7856800
92.4150870	-30.9945560
107.7479900	-14.0861310
125.3257000	48.0394240
139.7162500	-36.8427350
95.8161820	26.0939050
134.4140100	18.7051080
112.4640300	47.4127350
123.4879400	30.4401740
199.1495400	-18.3186780
78.6962490	-42.6917170
196.0827100	-25.7400590
72.7170440	-50.8899680
75.4194220	62.8344100
134.7048700	2.9088558
145.5771200	-43.4765330
82.7509500	28.8937800
164.8174000	64.1873550
116.3067700	-15.7071760
103.7208800	-20.6910200
128.7252500	34.7692540
107.4629700	31.4568280
86.7369350	26.7409850
94.5717700	-59.1967960
171.8244000	38.9501900
173.4183100	9.6797155
74.1262930	44.4655720
162.8995300	-42.7888790
62.0454580	-25.2930950
106.7643200	53.2374360
74.7937330	62.4079310
134.6792000	23.6884430
110.1520600	35.4646980
66.0878740	-42.7896300
145.7982800	26.5374430
164.2972100	61.6557300
168.8556300	57.7497570
58.0733280	-16.3062900
104.6014000	8.4516677
128.1395700	-29.2893870
171.5520400	61.3580010
111.4135200	51.2772500
151.7430400	49.7764690
108.1490500	-39.5874200
69.6063490	25.7343810
147.8300500	-10.1769900
84.9799100	-39.1517430
55.3981010	-22.9638250
98.4823100	-59.9208210
110.7405800	38.7628190
95.9400140	14.7040060
58.7540250	-23.3737880
153.4352100	3.7773442
66.9179270	-43.4674380
84.6892420	11.5400900
154.2692600	32.3608270
109.4223000	40.4088100
122.7309100	55.6137790
112.9178500	-48.7629280
62.2261860	-61.2867820
100.6731400	51.3705660
121.0393600	-42.2292610
103.4217400	5.8637718
84.0334820	37.4665600
126.6342100	-59.8738320
99.7912230	-49.9987290
78.7461420	-58.2282070
137.1941600	31.0110760
131.2407400	-20.8707590
120.1765800	-58.7290020
74.3370510	61.8920320
134.4574400	-1.7563328
48.7688920	-45.4371100
104.0817100	-10.6921220
60.8859720	27.3749070
57.6055950	11.9892570
53.8007430	35.1590520
121.0649500	-34.5872450
145.9732300	-61.5014980
102.2798500	-38.3548280
128.7355500	28.3706340
109.6262200	-30.6812080
63.7614260	-40.8675320
90.9654160	5.9560873
153.2114600	19.9880710
127.0855000	20.1944450
67.9888670	-55.0872480
112.6680200	3.0153175
117.0230500	-14.8036420
100.8770200	-20.2690560
107.7498800	12.9091970
75.5621640	-38.8438400
39.9337370	58.3424080
105.9475400	-2.3461796
113.6983400	-16.8488870
137.1929700	4.7902701
128.0211300	59.6150730
146.7966400	-20.2122070
129.1706000	-9.1583621
107.2463100	-18.5182800
135.5550000	7.9787913
45.5476120	-17.9471590
76.7828510	35.6066160
133.9841100	-47.3983280
128.1899500	-45.1930150
138.9067700	48.5157200
46.8078140	9.4542528
133.4385900	-59.7037890
140.7956400	-0.0619869
52.5876600	48.7201030
141.9621200	-5.7290400
85.6988450	25.3033000
64.0624610	-57.4294440
140.8804800	-37.0061300
110.6443900	-62.7528540
141.4091900	58.5891110
113.1144700	21.7964720
75.5558780	-25.6387570
74.1377390	2.0956495
73.2678300	41.5226440
66.3729260	54.7766650
117.4552800	-58.6542080
114.9284300	-0.6101892
27.1986320	58.1434520
71.6574640	1.6756271
115.0692600	-19.7076980
45.4603810	-38.1916670
75.4162840	-27.8497350
117.2666300	-7.0655183
92.8325620	51.5105360
136.0377100	-54.9501110
37.6019830	28.5778160
92.1243900	60.4159030
53.4584200	-59.7320540
23.2640800	59.4591570
84.8181200	-62.3463510
70.8325050	10.0996940
106.8102100	-55.8168110
23.6590850	48.0277990
131.7828100	-4.0371934
88.0020450	63.9489740
107.3950900	53.4521740
49.2584180	-19.9113880
103.4409300	20.3837610
98.6098990	-52.0419170
66.2091970	9.9866995
24.2259170	5.1172727
25.1654390	54.7971640
21.5982980	-22.8458470
24.5678770	59.8966430
80.9686290	-49.8014070
11.7795770	-22.7100720
113.4541400	21.6484870
123.5351900	-21.3950960
76.3125530	51.1729390
50.4747200	62.7385810
17.0540590	-63.3216070
60.3821330	-56.6442420
45.4160250	13.7403170
105.8210500	58.1315070
76.9314410	-7.1814057
129.9347600	35.7796090
100.1414800	43.7597530
117.6756600	-8.6348950
109.5895400	48.8369250
38.5661790	59.2005570
120.6862300	-3.7358872
1.6830112	26.0996770
52.5741950	22.3934100
26.9268250	26.8636830
32.8673500	-38.4989460
122.0941800	20.5028690
62.8137150	31.4617430
53.2642460	-3.7123334
69.2311630	15.7506720
67.8240880	-34.5214540
93.1196270	-56.8056500
27.9074640	38.3329220
92.4964010	-15.2348740
44.8814080	53.2981550
90.4134440	-7.0645584
17.2853580	-36.4321070
5.3475972	-41.7357950
23.4578080	58.7153010
-3.6493544	-43.9318980
34.9162130	36.2451230
74.4425840	-18.5918110
65.6374290	22.9394560
110.9689400	-7.5729875
108.6548200	-58.2454870
60.8001620	12.8373920
18.3652510	-43.8967460
52.2958730	60.8074470
46.1026680	-36.8164910
48.0843120	-36.8289190
23.9254470	18.7421700
33.9195500	-44.2646800
36.2770810	11.5797260
57.4205320	33.5835160
100.0823700	-45.1394170
11.3022200	0.9942659
92.5793320	60.6012830
109.8184100	-25.6039800
-0.1774509	44.7570490
94.6386160	23.7999300
42.5644900	-63.8208740
61.9269070	-62.3915830
36.1539400	-21.3223920
38.8813980	-50.2019640
99.1078350	52.9587070
95.3473480	31.2806100
88.9774900	46.7493810
111.0722500	-27.0479120
95.7580600	-48.3316420
83.8059150	-30.1693230
98.9350750	4.6208597
34.6041030	36.1217890
40.1867420	-6.0528688
94.5342650	-5.2242491
103.7950100	32.3358400
14.8257580	58.1330240
15.5425920	0.1120075
54.3931290	29.5321630
93.7571120	-30.2968550
89.7949390	-53.2039900
35.6949440	19.0701690
22.6786440	-21.5974550
33.1099320	-31.4638620
1.9707503	-6.3458704
45.2738220	-62.3712150
55.7183380	26.4295890
41.5161390	54.2496850
49.4796260	39.7474300
89.5167950	-41.2230550
50.2917020	37.6562990
-10.6011690	-54.7842240
19.2814060	-9.5306544
52.1186680	15.5771160
4.2913306	48.3226070
80.7751660	-40.4229930
3.9878678	-47.4634730
65.6137170	12.0177320
56.3014130	53.8055510
52.2484340	45.4772000
67.3922370	-16.5916000
-16.7003730	20.5773610
0.9552089	-31.3068100
30.1156400	52.3555540
22.0048440	-46.5863420
-16.9853300	-33.8191270
100.7470100	63.2095450
19.9159670	-38.4072500
93.1765500	31.9819300
74.0989260	-63.7938780
102.7625200	-9.6478037
-13.5015890	-3.9415021
85.0832080	-12.1164540
82.0361400	-1.2853464
35.8127260	63.9258620
99.6641590	0.7164097
50.9883490	26.6708300
21.7164020	40.2368050
-9.0680256	54.8595510
104.9252600	63.8733430
36.5144030	39.4134080
49.6681780	23.3468030
100.1676900	-4.4819876
75.7268330	28.0875170
-11.7915550	4.4315861
85.2268930	38.0605620
26.6853690	37.2062790
17.2028820	37.1227770
75.0807020	-51.9697170
-18.2608240	-44.4838480
-15.2099890	13.1265720
13.2258380	45.2113280
-19.9376550	-56.6106490
63.8716430	-2.6580246
86.7834600	-5.6057761
-25.6194020	-57.4361330
-14.7733940	16.7340710
9.9593672	30.5239700
94.8817920	-14.5159860
-24.9662020	-32.8899430
28.9120520	30.4983580
5.6608729	-5.9156417
24.6959240	18.6956970
8.6132760	-17.6609430
-5.4156511	36.9977430
43.3995580	62.5265170
5.0021820	17.7903810
3.6066156	13.5709960
72.6434420	-44.7766880
91.2693010	57.7512150
51.4546420	42.7253220
-5.1195676	8.5044495
76.7532060	-9.0358067
-20.5116790	61.5694450
73.9996710	48.1992350
-8.3034460	-31.0342260
20.1142830	-26.4374080
53.5685920	30.9610290
38.1978420	4.5332332
33.2097280	-30.2325570
73.6446830	-30.8978530
-29.5412250	-28.6089290
10.5547300	-8.0916947
17.5697740	-8.0976785
-12.1481310	-18.1432340
86.6308070	18.1795190
-29.3920810	-56.3648210
42.5599800	-42.4453690
-24.4334350	-51.7363190
28.6442720	-58.8573700
13.9013740	33.3564690
37.7628170	-44.0220910
29.1199000	-43.1335300
-26.0691250	19.7371050
-2.0173424	-29.0789930
2.6802732	-57.9153050
68.1916650	13.6570680
32.3277910	57.0127320
11.7879860	-3.7219367
19.4880370	-61.5319310
-11.1989340	-37.9813780
16.3292640	-6.9155286
36.6423400	8.8717220
86.9472890	-28.5510240
-28.6078090	-13.1899150
48.5905220	5.0797012
68.9896170	57.9579580
88.1692080	-15.2591120
-18.9211320	34.0686730
-0.3259923	-5.9529059
29.5732640	-8.3915417
41.1602100	-34.8389960
6.6218582	-15.4182720
69.7929790	45.2330130
7.1341211	41.9160560
26.1683810	-11.1745980
22.0714540	57.6646990
-3.2570561	-62.8589830
2.2046950	-15.1336540
-1.3543868	29.6020030
-22.9627890	-15.2620530
22.2601670	5.8014243
24.7003500	6.8346630
45.7831480	-12.8435040
5.0881380	-22.7461590
21.3637220	17.5289980
-15.2821460	-42.2939570
40.3923660	-43.5052500
67.9403260	-52.6230310
76.0539940	-14.7858420
27.4581560	0.3932259
46.3263710	18.6463050
-33.2809040	63.8779500
-3.3178318	27.1134250
8.7260752	9.9952335
59.8674080	-42.2837980
-15.0976490	-53.3789030
49.9636060	16.0951880
19.0625400	62.3070560
45.2423050	39.6640500
1.5222688	29.8743450
-27.1982010	-36.4362690
2.4783291	44.1096210
-18.7504100	0.3694675
87.3724130	-28.5968710
45.5537070	25.4772800
-22.1144970	22.3404970
39.7201350	-21.9729830
82.3977870	21.0067500
43.3906130	-32.3823410
-18.8270130	50.6346650
25.3330670	21.0725920
63.7031110	3.4038024
-28.2758520	60.6743820
64.9539300	54.5992700
-28.7496780	-60.8574250
-25.0525310	-37.0197780
29.9154330	-13.3442180
-34.1071200	-53.2637730
48.6764670	21.7712310
14.7047110	-38.5479950
-4.1522079	-1.7624618
2.1918908	31.6060040
-12.1811080	45.0948300
8.6182884	-4.4013454
51.0239790	28.9451270
-32.7422140	-34.8949200
73.0768600	58.1947490
11.4705070	-23.5285550
32.4916500	-43.9664890
-24.1726410	-46.0866980
43.1521990	-37.6717700
24.3087950	-14.0855390
27.4168870	-42.6434920
72.0295520	-41.0705340
19.1209360	-60.8168730
76.8785050	-61.3884910
-13.3811870	6.4046402
23.1682850	-60.7013450
82.5400410	12.6431000
-17.9130650	-45.2952270
34.1145080	-8.6416404
32.1834790	-0.2689872
19.5641390	40.9564200
-36.6421560	38.0213420
-24.3352090	-63.6306360
30.3249970	7.3553049
-1.5033687	-57.1427360
71.7150530	-63.2102960
72.7657700	-58.4033510
-2.0446957	48.6275340
-10.1697520	43.9186830
2.0588060	20.5014330
-39.7185480	14.4703020
25.8352020	-60.4995170
48.8113980	-53.9900270
-24.8846670	19.2650370
65.6031990	-55.7716420
41.2636380	-5.3456804
77.3896200	-51.7560420
76.7893990	-53.3298390
53.7891030	59.4376430
59.5246520	-2.1482343
42.2720460	26.5899780
78.5173620	-32.1943430
-11.4135260	-25.0953630
69.1505540	-31.1045830
24.0368160	-34.6874340
70.3820890	38.6687870
56.2334620	20.0000550
13.9844650	-42.8650810
61.9857140	41.2906860
-7.2405388	-39.4453090
23.0269170	5.6732701
28.1194540	-52.6371430
30.5965200	-9.1920973
38.3501740	-33.9982130
-14.5299190	26.9293990
18.3263730	53.9551720
21.7853510	47.3028060
-14.6646090	-0.8250710
-34.2633650	-56.8991110
-5.9093274	-5.0907142
-21.3406530	21.2499570
1.3602374	34.7952000
-44.7440270	45.5698210
-15.2997610	-63.5888870
-6.8615979	-8.2170156
15.6202420	13.7663580
54.3420360	40.7831980
23.0471590	-47.6505380
-8.0830226	-59.9328680
42.3798300	-14.0906030
24.2662670	53.9585900
-8.6306657	-59.8310440
-27.0911450	-24.5762930
19.4879720	51.3656800
28.1585160	-62.9907280
69.8629090	42.3898120
-24.3118260	19.5495060
20.1842940	-11.6208230
15.5376370	-28.2954490
-36.4042310	10.3890020
11.1237370	-12.7001500
-11.3280290	56.2383670
31.9283260	-29.1934990
-37.6725680	-38.5430800
-43.6467740	36.5518420
17.3144470	-23.3650580
55.1540280	-51.0344100
72.0402900	7.9747843
75.9390520	-58.2986300
-45.6946580	-25.6592330
-17.8919090	14.4082350
-11.7020460	33.9348280
33.3725430	17.4261610
20.9518850	37.8668100
-48.0373030	-27.1240690
-6.6447059	-6.7941110
16.4152340	13.5892120
-15.8691000	53.7154620
-29.2657450	-20.9614270
13.9608540	-48.5647100
-48.0937650	62.5004970
32.5033960	-26.4764520
61.9513190	56.3448380
24.7438400	-12.9372890
75.4031690	-63.3732350
6.9964700	5.6362563
-28.4339890	19.7504510
25.4616620	-59.6541890
5.9559298	-0.4480407
17.5505380	-9.5690460
46.3994380	-55.9506570
-27.9595290	44.2048020
19.6168220	19.2603930
-19.6044270	-10.2012690
-8.4923056	-47.8823540
11.9054350	13.0168470
2.4986268	35.9248410
-26.2803670	-13.4154130
22.5568960	7.1011298
17.3173620	-49.8323190
40.9186000	11.5926450
0.3972509	-32.1076800
-23.4652260	33.4566970
62.3058240	-20.5288920
-25.2120560	40.8225020
-26.4537380	0.3381271
54.5208530	-0.7164152
35.0488040	61.2781310
-22.5296540	8.3739372
66.6351860	-10.0979240
-46.3570200	31.4052310
43.1178910	11.6080600
35.5130440	-51.4300520
-49.6684260	-38.8055810
-1.7199156	-46.1293830
-19.6377220	19.6586520
-15.1470890	-35.2282860
44.3943020	-33.8149090
-12.4588810	-62.9594060
14.9313130	59.4890780
37.1362210	-64.0647770
-39.5121580	-26.0149450
66.4088030	3.7641332
-29.0963190	7.1334332
66.9366160	33.5319330
37.1361990	-53.3926250
-14.1705210	53.8331570
54.7954850	-40.9059560
37.6116740	48.4696820
-10.5488230	-10.6875130
-41.1498360	37.1171220
71.0444950	31.3477040
-27.0571300	-17.0108070
-41.7209440	-62.5373740
-1.6273822	30.6568970
17.0535880	18.4945300
30.4337280	40.9693710
-49.8004430	7.5862032
56.8939280	-54.1959550
-41.3226550	-39.1441650
14.9645280	19.7744940
-10.5492810	37.7701070
-23.6497340	32.1588400
36.4094600	-60.0245960
27.2032880	29.9724820
71.3860580	11.8875610
10.3511670	-45.2499960
-31.4726770	0.4596417
-29.7731460	12.8350150
-31.0872630	-36.2818580
57.6881090	8.8740753
-13.5752500	-48.2644610
11.2395710	22.8986790
36.9257150	-58.4907190
14.4217380	7.3346478
72.8201840	9.2789824
-13.7187970	-59.7716470
-23.5027960	-61.8316470
25.9013400	62.1487090
2.8352108	47.2012520
-14.6253100	-5.5932563
63.8944310	3.2647144
-41.1046390	27.1044560
-7.8160554	-27.5646500
-22.9156310	46.8138040
41.8001240	-31.9914480
-1.0596459	46.6561920
17.5080110	-6.3513486
38.3039010	44.3445770
-30.0848790	-30.9504530
-29.1652000	62.8132740
30.3963590	6.2105317
-9.6619521	-31.2651540
64.4324350	11.2317930
-33.8462140	21.9543220
23.6293090	36.3446830
-11.1321380	48.5920750
40.4753900	49.9278760
-32.4934990	47.8413510
52.5232400	-35.0648810
40.6595680	7.1814071
-1.9614494	-28.2513660
-42.6025720	19.0320950
46.1188660	-50.8690610
-10.7582420	-31.1960000
66.4422300	48.2008580
52.5119100	46.1030090
17.7030050	56.2762920
4.2207822	62.0464830
-39.0795220	16.7316490
-25.3340270	-7.7572963
70.2635100	28.9988280
53.7324290	-2.9656122
-8.4033205	-50.4588310
-0.9298970	-19.8587330
-28.3156550	-36.6203360
50.5193550	-1.6745566
-27.8199330	-16.5174440
-35.4169070	-52.5866670
-26.3700160	32.8618770
-12.3844870	-1.9142351
-19.1517470	-45.0930940
-44.8101440	5.8704813
20.0289550	-42.2837460
36.8130420	-22.0663800
51.2796410	11.7100080
-5.9874940	-52.8573420
46.7336140	-27.7682410
66.9082540	9.7556998
-5.7064275	-49.1205830
-41.5126100	59.3186640
-51.6027680	-25.9209050
45.3187240	22.7384160
18.4167590	-25.5350330
-41.7619520	-26.5183000
-39.4149600	-17.0355850
51.5062060	44.8736840
45.9502630	-43.3342830
-28.1891020	40.4879980
-41.4543660	43.4934870
-19.1497820	3.5804949
-25.2007510	42.0803890
57.1867840	11.6217600
-33.6860940	31.7058320
-22.3467260	-7.7696443
36.7125080	20.6950870
41.2328340	-18.7852340
-49.8313780	-33.9173640
-0.9311136	32.5357490
-24.8818200	26.3254600
70.8828520	30.7901430
46.1202400	50.6405220
69.3930780	25.0203970
-41.4875130	48.4167620
60.6095930	-42.6400090
-46.6930060	43.9839920
59.1647270	6.9598034
38.2934680	54.8776360
70.8459700	-29.5156190
61.5428690	-40.9361720
66.4995320	24.7847940
28.1213770	30.6479300
63.7832460	46.2228320
-54.0155020	-18.6305900
-48.6281780	47.5718070
-50.6882180	35.4543500
7.5653179	26.9386600
45.5230220	-52.3541310
23.2688470	10.7578550
-14.2190380	-47.2236430
65.7809170	23.0568360
-14.6858000	-27.0686540
33.0640650	-22.0703330
-17.7613470	42.2592830
50.6276950	56.9581050
-15.2633920	37.4496370
0.8637123	50.6830740
64.1139130	37.4155880
36.0145950	-34.3444880
22.8495240	-62.6022910
-23.2486560	1.6077511
62.5004170	-60.3493700
9.9049148	30.4784750
61.2226230	-13.4682200
44.5683540	36.7887790
-7.1454074	14.0435700
37.4556500	9.0247057
-37.5290370	1.9621651
51.9189060	15.3398000
49.0832630	6.6103737
-0.9633807	-28.9243130
-0.3243369	36.3619150
27.4686450	-2.0296515
35.3148050	-49.4741390
20.9675850	34.2884580
31.7312570	-13.6829050
-40.7351720	32.1529750
13.4091230	-59.1553260
58.3348450	-58.2037060
54.2618740	-0.0887179
-26.7084080	56.3742780
-38.3081210	-38.7311380
5.1553409	-31.9048710
-42.2938470	21.8786910
-12.4343110	46.4274490
8.5392069	18.5448750
1.7806328	-8.1113496
-7.9835660	20.4587200
17.9671120	-5.8374595
-25.9938190	21.2712910
16.9668280	63.8449880
-50.1203320	50.6277180
56.1677180	-58.5671630
-36.2392440	-45.8537420
39.4699030	-18.1564680
-19.3272890	33.0612910
24.5910830	3.1695694
62.4844400	-48.7386470
-32.2113080	-50.8154730
-44.0921360	-27.1917570
57.2103930	-12.6875310
28.0260860	-15.6578120
1.4282346	-44.7773190
65.4615740	-19.7584680
-45.2233900	5.2697557
59.0888270	20.8287240
4.1694041	55.6864430
-53.3051440	14.3675810
-40.7012440	52.3667330
-26.2909630	-22.9899880
64.2334290	-54.8714650
55.4807720	51.9761070
20.4437480	9.1320556
12.2023150	-55.6552010
-27.4565590	-22.0610350
-53.7518470	-25.1049470
68.9361570	-60.8167000
29.7403250	-33.0139910
-48.6415070	-53.9350180
-38.4360090	-35.8354060
-10.1943770	17.5688560
-39.6026910	-26.3742540
-0.1981811	-22.6732760
-16.4251020	-16.3276740
12.9564270	61.7712730
17.2200580	21.6182500
-0.2801289	58.1840390
22.3539280	-49.2958600
-21.6272610	-54.5135740
-26.1723540	-62.6692760
-8.8733279	-29.1546960
-50.8204380	45.0930120
64.2537470	-35.5169830
15.3226630	-18.5223550
30.2624990	60.9540070
-40.1148010	20.5637030
-15.9410310	27.6379640
-23.3812050	10.1061330
47.8098170	-63.0824820
-36.7327950	-5.9808761
-50.1898140	8.8637499
59.4433550	9.7901207
65.5995880	57.8170060
-10.2449940	48.8745030
-48.0656640	44.4161820
19.4283880	60.0133020
-29.9715300	-28.6131360
-16.4182830	-28.9893640
3.2453925	-60.4852200
-54.5857090	10.3002690
58.8116710	27.0719520
49.4345890	0.3609357
51.8780370	-42.1591570
-53.3909190	-30.9620760
-54.9271170	43.0809600
26.0337780	-55.4987830
-43.7419400	3.2288627
-3.9837918	-61.9817780
36.7286180	-36.6290710
6.7479619	3.8785905
-23.3595390	56.2592660
38.7586540	27.6629010
-26.1220110	-0.6642526
-2.7821540	-0.5978372
45.7531600	54.4854140
4.8469705	6.8133121
-2.3096215	-37.1810390
61.9421270	18.1355800
27.7489900	53.5869050
31.4470150	8.7719557
-47.5512340	-21.8190970
-12.7004870	26.9651610
46.6579960	-40.6815330
-54.3082410	-3.1645104
14.4851070	39.9216280
-12.2328930	34.8367250
45.1621450	41.3029570
19.5500440	-10.7181160
45.7748770	5.9825523
-15.8351960	58.3333870
-4.3903643	-4.6130126
59.9724540	19.9802050
13.6231420	-35.3550920
-36.6476740	56.7155780
40.7055130	-11.6162190
49.0156510	-13.5849900
62.3790700	-29.7837180
18.2265410	-60.1282940
-3.8961588	-8.7021419
19.1714950	16.7933820
-2.1282327	-11.2701650
-15.0084740	-63.7182990
27.8308940	25.8885720
-15.2682610	28.3604190
58.8832530	61.0407490
4.8678053	-63.8766750
-18.4823390	-56.0704340
-8.6905373	-8.2665024
-34.5093480	59.1260710
