jMRUI Data Textfile

Filename: dataset28_nWS.txt

PointsInDataset: 2048      
DatasetsInFile: 1         
SamplingInterval: 2.5E-1    
ZeroOrderPhase: 0E0       
BeginTime: 0E0       
TransmitterFrequency: 1.2322E8  
MagneticField: 2.9E0     
TypeOfNucleus: 0E0       
NameOfPatient: dataset28_nWS
DateOfExperiment: 
Spectrometer: 
AdditionalInfo: dataset28_nWS
SignalNames: dataset28_nWS.txt;


Signal and FFT
sig(real)	sig(imag)	fft(real)	fft(imag)
Signal 1 out of 1 in file
52178.8860000	-1635.0454000
54226.4710000	-3632.9713000
51103.0440000	-5878.7258000
47156.1690000	-6100.6055000
43907.2340000	-4314.2970000
42218.9510000	-1185.4266000
42608.8890000	1968.3139000
44545.8140000	4105.7346000
47017.0300000	4585.4617000
49173.6060000	3402.3025000
49999.6670000	1274.9014000
49404.8660000	-798.3191100
47700.9260000	-2202.7478000
45705.5420000	-2338.1381000
44173.4190000	-1392.7091000
43586.7370000	-32.2840050
43911.6440000	1130.1782000
44829.2530000	1540.6696000
45609.8450000	1095.5342000
45813.9870000	93.0043190
45276.1390000	-1004.7173000
44087.6320000	-1551.6506000
42788.6060000	-1293.8457000
41871.2300000	-459.5110000
41561.7740000	730.8056100
42081.9630000	1686.9818000
43035.8630000	2068.3686000
44055.4850000	1624.4426000
44585.0040000	630.6421600
44415.3190000	-581.1033600
43595.8130000	-1644.0875000
42369.6530000	-2101.9720000
41046.8610000	-1870.2158000
40082.0300000	-1159.0255000
39634.0790000	-137.1602900
39792.5680000	821.3328100
40351.5340000	1501.5245000
41124.5260000	1565.6594000
41726.3970000	1173.9431000
42104.5210000	485.3651500
41935.6360000	-364.5316600
41264.1380000	-1116.3228000
40427.6880000	-1470.0042000
39451.5490000	-1361.7633000
38636.7190000	-915.5232400
38230.4680000	-196.1340100
38190.9790000	515.6501900
38531.4350000	1035.5189000
39075.4780000	1236.1318000
39573.9800000	908.5307900
39764.1310000	299.4635400
39513.7130000	-431.0433100
38887.0230000	-970.7472800
37989.7740000	-1132.4077000
37089.6890000	-831.3673000
36554.2900000	-207.9095700
36498.6830000	526.5326900
36839.7820000	1052.2791000
37327.1590000	1159.7486000
37775.4730000	774.7678700
37824.0950000	116.2182800
37377.9580000	-567.4398200
36634.5330000	-899.3027500
35778.2810000	-849.4764200
35032.8210000	-402.0652900
34799.2270000	305.8782700
35032.2710000	917.0118300
35578.8510000	1138.4065000
36081.4270000	887.1369700
36241.3470000	242.8452500
35964.0430000	-456.0659900
35276.6410000	-1008.2334000
34357.8770000	-1024.5718000
33620.2460000	-669.0482000
33202.2720000	55.4010270
33373.2760000	739.8342100
33842.2230000	1077.9016000
34373.7880000	938.7133200
34747.9370000	360.4523900
34593.8250000	-332.7591200
34036.7000000	-1009.5082000
33116.8930000	-1211.5445000
32250.7840000	-915.1210300
31764.9850000	-223.7841200
31681.5560000	565.7736100
32115.2560000	1117.1212000
32752.3580000	1218.9767000
33310.5590000	842.0503800
33488.3770000	147.5737200
33186.0550000	-621.6332900
32556.8600000	-1180.8678000
31638.5870000	-1277.0364000
30850.5590000	-904.6026500
30411.7920000	-319.5624900
30327.8870000	364.8515000
30629.2320000	823.2203200
31059.4540000	982.5098500
31378.6240000	669.9036000
31538.0710000	230.0260600
31305.0180000	-188.2278300
30912.7850000	-454.7126800
30350.8670000	-522.8088400
29949.6050000	-425.5713100
29627.0460000	-103.7806500
29549.5150000	170.7906600
29654.1520000	244.3389700
29698.6980000	258.1331300
29663.1560000	52.8580300
29496.4290000	-84.6710370
29147.1170000	-183.4064500
28862.7210000	-172.9578400
28615.6680000	-30.1273710
28476.6460000	170.4578900
28440.1470000	333.3710000
28509.2350000	377.3003400
28589.0160000	334.5133000
28629.8220000	136.6327300
28470.1100000	-123.9895200
28260.7900000	-278.3985800
27892.4840000	-435.6101700
27545.0740000	-380.8570400
27190.8420000	-309.8221500
26922.1350000	-63.9205660
26856.6370000	173.4426200
26864.7280000	321.2074900
26945.3660000	423.8505500
27050.2860000	366.0080400
27102.0370000	206.7767300
26993.7460000	-25.1381130
26856.2930000	-241.4471200
26537.1410000	-322.8840900
26197.8140000	-330.0071900
25945.5670000	-247.3371900
25720.9290000	-122.7017900
25675.1760000	106.6825000
25652.9500000	206.9461900
25711.7020000	243.5134900
25725.9010000	183.5979700
25715.5430000	102.6920200
25602.2150000	-27.0164200
25380.4560000	-138.5680300
25171.7230000	-216.6680900
24918.6380000	-192.9369600
24679.5370000	-97.8246920
24567.5140000	-5.1974249
24556.3210000	55.2902770
24476.6390000	96.2172310
24443.0420000	110.9282100
24411.1680000	18.5832230
24193.1220000	-55.3849320
24012.4670000	-106.7726100
23830.8620000	-96.7777880
23746.9340000	-35.2867600
23588.9180000	69.8208190
23549.0650000	106.4977000
23539.2950000	136.1319900
23539.2610000	62.1199770
23441.2220000	40.5118180
23288.8980000	-76.5885100
23104.8120000	-112.6883400
22905.9070000	-98.0221550
22708.9180000	-119.0001600
22540.3940000	-17.5009560
22460.9120000	103.4294800
22437.8780000	156.7742300
22400.2030000	117.7018000
22427.1240000	90.5466260
22359.1560000	37.5548060
22146.9620000	-56.5972020
22033.5050000	-150.5515600
21835.2670000	-104.3178300
21692.9980000	-38.1661490
21524.9780000	-9.1102446
21452.9330000	115.6084000
21419.1490000	125.1818700
21397.7980000	78.4729180
21307.5750000	72.1509500
21306.1270000	-10.0025070
21135.7910000	-60.6137330
21009.4380000	-50.7332880
20907.4940000	-71.7037870
20717.6440000	-90.9307320
20667.1170000	-22.9397580
20550.8250000	21.4204340
20486.5350000	40.4154610
20407.0230000	46.7065260
20297.1370000	-20.8526620
20249.1510000	-48.3045790
20094.0270000	-51.5230760
20028.9220000	-100.2706600
19857.5560000	-36.5393610
19812.7770000	-11.8524330
19667.1900000	0.2627848
19629.4860000	-19.0888650
19507.6540000	60.5888430
19426.8420000	27.9282410
19388.2220000	-3.3374260
19305.2600000	39.3852290
19231.2740000	27.9547510
19065.6540000	36.6455960
18958.0370000	18.3170000
18875.0730000	-34.0478000
18843.3210000	-14.3724900
18710.6060000	2.3751128
18661.2030000	16.9401300
18579.1440000	38.2746180
18507.1060000	13.2188590
18427.5000000	-24.8277850
18330.7720000	-37.5364710
18197.2040000	-60.5539360
18071.9530000	-17.1480800
18015.2390000	34.5230710
17923.5470000	-15.5425360
17809.1820000	44.8141570
17744.0840000	28.9262880
17711.9910000	68.6794420
17609.2850000	57.7688830
17577.0330000	-5.8137024
17464.6490000	29.3491940
17416.9360000	-22.8408400
17311.8340000	1.4726786
17228.0630000	2.9440221
17132.3330000	-25.5553370
17005.0240000	-25.2467920
16990.9940000	50.1471560
16905.9670000	32.8609010
16837.2610000	7.3015865
16775.9070000	-16.2485550
16649.7840000	-13.6476200
16543.0080000	12.7674320
16497.2510000	-5.6044975
16431.5930000	-27.8379690
16320.3110000	-51.5458270
16270.2530000	30.3040740
16139.3310000	-1.2567771
16096.7100000	-34.9410230
16036.7130000	21.6285630
15917.4310000	2.6706961
15910.9440000	-1.9045048
15778.5890000	-32.0798370
15761.5160000	13.0716620
15684.9950000	-5.8782885
15540.6710000	33.0670970
15468.2230000	43.9813960
15437.2600000	-34.5217990
15367.0120000	43.8233250
15302.6370000	11.0021720
15216.8350000	6.8918063
15133.1450000	-36.8399230
15074.7940000	23.1804690
14994.8380000	6.4312791
14909.4180000	10.3817780
14852.2570000	22.5662470
14825.3420000	27.3194080
14717.7060000	50.3146030
14674.0080000	18.6900070
14622.1280000	-26.7977900
14560.0230000	1.8678420
14445.9330000	20.1252110
14384.3930000	-34.0101050
14324.0460000	-34.7610690
14213.5660000	4.6745519
14165.0880000	28.4529420
14067.0480000	7.3704955
14045.0730000	12.0033980
13953.2980000	41.1196820
13924.6480000	33.9678830
13843.4200000	28.3767700
13798.7120000	43.4995710
13732.4720000	-6.1930277
13699.3270000	-43.7574370
13584.9870000	-59.1007840
13545.5770000	23.7231790
13485.1280000	18.0078560
13356.3960000	-2.2574212
13294.2760000	-1.0849311
13263.7930000	-42.7235160
13191.2800000	27.3231090
13153.6870000	30.0789110
13104.1850000	-44.7865330
13031.9910000	5.2666108
12954.0220000	-16.4350900
12876.2260000	25.4428930
12837.2970000	8.5548488
12778.3850000	-40.9029400
12680.9410000	-12.0483540
12644.1640000	30.0855240
12624.0110000	-36.1826290
12533.2930000	-18.5947030
12485.6860000	37.2030040
12467.7130000	23.0828490
12324.0580000	-1.4371837
12328.7460000	33.5000670
12241.7080000	22.1960390
12208.2810000	31.2287460
12119.1670000	15.4104250
12130.3460000	-28.9997810
12046.9400000	-32.0638440
12022.4800000	-32.4009620
11892.7940000	-58.8092540
11877.6230000	-50.1888380
11752.5120000	-52.9339670
11753.4450000	-9.4362996
11651.6010000	21.9272710
11645.1100000	27.3248520
11532.3840000	-13.7617280
11534.3060000	2.6773621
11486.4100000	-2.4064402
11426.0140000	4.5173383
11364.9230000	-1.5739247
11320.3390000	-6.4539392
11243.8070000	11.4008410
11173.0940000	4.7439930
11127.4180000	-4.5137393
11102.4840000	46.1192460
11079.2130000	26.0953080
10996.7310000	-5.7094319
10965.3540000	13.6599750
10904.6540000	-16.7703330
10850.4730000	-43.6206390
10760.1430000	-18.0297340
10722.4400000	-22.9802550
10660.9140000	6.2353389
10658.0220000	-28.0399430
10577.7860000	-43.2290360
10577.1420000	-26.9202890
10505.3950000	-21.5494320
10448.8700000	-2.7170220
10428.4960000	-50.7834460
10345.4460000	0.9967388
10279.0550000	-13.0370660
10251.8110000	11.5844500
10181.5900000	-15.0333540
10156.5410000	29.6029680
10071.1110000	38.1886250
10023.5250000	4.2380833
10032.1690000	16.4936130
9933.7199000	35.6908890
9943.8877000	15.2556420
9897.3436000	26.4039570
9841.5005000	7.1773209
9771.7373000	22.1680370
9704.7576000	5.5558917
9693.2488000	4.8824136
9660.3807000	1.1319732
9562.8477000	-5.7464394
9521.2153000	-49.6766240
9458.0140000	23.9736390
9477.6766000	-32.4466900
9433.3840000	-5.1452758
9316.3322000	-17.5157760
9326.1491000	-9.5854954
9240.9680000	37.6147340
9272.6055000	-15.8181050
9245.3174000	-18.4499930
9207.1150000	7.2979349
9134.0019000	21.8926390
9062.1619000	-2.6163899
9059.3007000	-44.6104330
8958.0843000	-11.7467160
8901.9007000	-30.5648850
8883.3222000	-20.2571180
8833.1271000	23.7932890
8851.3256000	-19.5464820
8821.6120000	-26.2612470
8734.9058000	-44.3881800
8667.2190000	-35.6874260
8631.9452000	4.1486953
8561.4016000	-47.5454970
8588.2640000	-24.3841280
8472.0257000	-24.0754030
8471.6177000	18.8400000
8464.5510000	-33.6292210
8384.3881000	-2.4250253
8350.7263000	3.7936567
8303.4833000	0.1989762
8307.0659000	-15.8549490
8225.9960000	34.6265800
8174.2715000	34.5102210
8180.3771000	-2.6025716
8120.7951000	-24.0829220
8110.3486000	-13.4761950
8079.2006000	17.9916290
8068.2209000	-7.3909898
8002.9638000	21.7502470
7941.7731000	-27.6029200
7951.0213000	-36.1883630
7863.4655000	-19.3049020
7820.5439000	0.7744697
7813.5759000	-14.1748380
7771.1301000	-0.4267707
7716.0385000	31.8854580
7680.7754000	45.7701260
7658.1684000	-9.3398258
7653.7630000	2.3638434
7552.6846000	-4.9745550
7571.6634000	-42.4336770
7475.2247000	-40.0971300
7480.0302000	-12.5254330
7465.4629000	-19.2008900
7375.6521000	-17.7693630
7351.9857000	35.4766320
7305.7681000	-12.7609560
7291.7217000	-10.4318750
7288.9452000	-30.1876010
7223.0332000	-49.1226140
7160.6739000	7.4954682
7111.5215000	-17.8577660
7111.3217000	-47.4753280
7059.3375000	34.2609760
7087.6511000	41.2653340
7055.8860000	-18.6278630
7000.5061000	14.9750410
7000.6024000	38.3786160
6898.1056000	14.9415900
6876.3184000	-23.7082290
6881.2872000	11.2047920
6822.1540000	-42.6993260
6767.9905000	9.2235704
6755.2810000	36.6813980
6751.7202000	12.5743490
6676.4706000	-9.8471248
6698.3998000	-18.1369130
6692.4168000	30.9173210
6658.3752000	-4.0736858
6602.5083000	12.8448320
6531.6730000	-40.5901970
6482.9529000	36.2415960
6465.2990000	-32.1381710
6442.0401000	-33.7553060
6426.3463000	23.3124900
6388.1486000	24.8267860
6335.8737000	47.2333160
6307.8459000	5.1858099
6294.1481000	3.3103335
6283.6238000	-5.2218311
6203.1887000	26.5126110
6190.5262000	-19.8149120
6139.9133000	22.0412360
6184.0461000	-10.2789750
6148.1482000	39.3461570
6077.1457000	55.3396230
6083.6080000	15.7275770
6025.6558000	-2.7573472
6007.2882000	-25.5722610
6003.7441000	19.9923940
5984.8318000	-1.9179119
5907.6375000	-12.2871400
5857.8159000	17.9849030
5860.7264000	18.3048270
5882.3319000	4.2209637
5784.4342000	30.8856350
5775.4938000	23.4196630
5750.0943000	-20.3554620
5788.2331000	-39.8202880
5684.7339000	-17.6538790
5694.1719000	8.3699813
5667.1658000	25.7878680
5585.7247000	-27.1072350
5575.8387000	10.3674450
5558.0763000	-2.9897160
5544.6782000	-34.3322490
5540.2079000	9.6060223
5459.4628000	23.8679310
5444.1959000	-6.1517137
5414.0061000	26.4900850
5397.9764000	3.3938048
5362.4197000	26.6314430
5336.3099000	-1.2324941
5340.8489000	-2.6466075
5287.5933000	32.6052800
5289.3245000	17.7008850
5283.9916000	-6.9597274
5219.4247000	33.3886600
5226.3488000	27.6009090
5158.7178000	-49.4053320
5136.7470000	-17.6236760
5160.8095000	-12.0653130
5154.9203000	16.0451550
5110.0169000	21.3383760
5075.9639000	-23.2177400
5067.8365000	-25.0206410
5054.7520000	-12.4574360
5051.8079000	-19.3014280
4989.1513000	10.7386700
4912.2391000	-42.0207140
4940.0843000	-46.2321380
4887.7482000	-24.6878190
4856.3102000	34.9375260
4895.8115000	55.4879450
4797.4864000	11.3429050
4807.7299000	42.6415290
4832.0762000	28.9800370
4822.7752000	18.3624500
4745.3727000	8.9473071
4715.2070000	-29.3851060
4740.0086000	-37.7631140
4714.6850000	-21.6996080
4640.7891000	35.9617210
4670.3557000	31.0025580
4652.7734000	25.1243720
4632.2913000	3.8256775
4548.4799000	11.4075350
4526.0186000	-34.3824450
4509.6495000	18.5059950
4518.2409000	-8.2364919
4474.6711000	-9.6366554
4488.0717000	6.1286941
4414.1753000	4.1179331
4454.9068000	39.6001370
4429.4515000	43.5107820
4358.2267000	-35.9110550
4410.2752000	30.2211950
4347.8081000	-39.7596110
4307.8823000	21.1011540
4283.9517000	3.0146327
4273.0375000	28.8850300
4250.5651000	-38.7252880
4281.5236000	-27.5828340
4240.7378000	-10.9179940
4221.8200000	1.1349903
4176.8562000	-24.1307860
4177.3421000	6.9081410
4166.0011000	-52.7456360
4084.3964000	-46.5056230
4100.8977000	7.3107387
4053.6778000	-0.5740863
4094.2611000	35.0395800
4043.7166000	-17.6617110
4061.4704000	0.9132804
4047.9529000	8.9048930
3986.8782000	-29.5603640
3962.8167000	-11.5734080
3976.9540000	-8.1451305
3952.8251000	43.0844980
3943.1475000	44.2089370
3882.8584000	11.6646620
3866.9071000	-28.3445090
3850.2371000	40.8150390
3872.2811000	41.1248290
3798.9031000	21.3182120
3846.8345000	41.9165590
3763.1426000	9.0186946
3759.6216000	-12.2302300
3739.9350000	-16.4532240
3762.5626000	12.0324200
3729.9476000	-4.0147784
3666.1094000	-28.2843590
3704.5318000	26.6615720
3638.3282000	-11.1227000
3635.3774000	-36.2686530
3670.2278000	39.4127160
3644.7786000	-18.7877290
3601.4014000	-18.9145200
3612.8967000	19.0946290
3528.1817000	19.4524860
3513.4424000	-16.9231860
3565.5248000	38.1603740
3517.4049000	-35.4316920
3517.6767000	17.7876130
3519.5356000	-40.4979400
3445.9914000	6.5270273
3444.7298000	22.7455540
3417.0304000	15.3309450
3397.3071000	-14.1631040
3419.1640000	23.1808880
3421.1428000	31.2091520
3329.0028000	-6.5402837
3380.0093000	3.2324066
3351.4561000	22.0969380
3290.8191000	-44.6489720
3309.3079000	13.2249610
3284.8329000	-21.5695000
3260.5720000	-9.0060961
3259.9652000	29.5031640
3281.3669000	-2.2240104
3255.9168000	23.6112140
3243.1055000	35.0934010
3208.6679000	21.5308150
3173.2456000	3.8111740
3198.1715000	-38.4106260
3183.7811000	6.9769920
3164.8794000	-8.7806379
3117.9044000	1.1577757
3083.4099000	-11.6606310
3107.5674000	-32.7970190
3080.3976000	41.7287360
3077.6059000	1.2605814
3035.5292000	-29.8597620
3033.2836000	-2.9794332
2999.1771000	20.4811910
2997.5675000	1.7786693
2981.9027000	-36.9528140
2973.9235000	-37.8233880
2932.2651000	-10.9302150
2935.5503000	-41.0029900
2939.1395000	10.8482400
2908.3787000	39.1133310
2891.5625000	-31.8355600
2871.2686000	-0.8055752
2846.2033000	40.7599980
2829.2616000	-29.2067970
2818.8613000	-3.3734440
2854.5917000	3.4114925
2828.2410000	-14.3042160
2790.4937000	0.2544355
2771.7049000	-30.1462660
2815.3001000	23.7117200
2786.3612000	13.3172310
2755.5249000	32.2903070
2722.2719000	-15.1010080
2739.9700000	-36.9714820
2713.4307000	-24.4590710
2706.5309000	-11.5301160
2658.3929000	33.5809740
2690.0755000	38.1324700
2674.8936000	1.9858918
2693.2977000	-23.5726900
2623.1161000	25.5024540
2631.1500000	-9.8313145
2586.5962000	-3.7001557
2640.2169000	-10.9342300
2578.8075000	15.6128860
2581.0312000	-19.0499970
2537.5573000	-37.1879810
2603.5208000	-5.9961829
2549.2100000	2.4508030
2581.5512000	-33.6822070
2489.7230000	4.9766140
2491.3885000	-10.5009290
2530.6450000	0.1251425
2476.4116000	20.2036470
2445.5652000	-4.7282464
2487.7130000	24.4641100
2454.0950000	-21.2704010
2448.1105000	-17.0926460
2477.4180000	-24.4432050
2402.6260000	-23.4127300
2447.0673000	-16.5554140
2417.0254000	-20.5461010
2377.5140000	-8.2878937
2370.9394000	20.8156400
2325.2328000	40.5030570
2345.4075000	23.9662450
2337.2596000	36.5961510
2355.4907000	-28.4181540
2299.5163000	-29.0538890
2308.9606000	26.5551560
2263.1501000	-3.6004718
2320.8598000	-23.5508550
2255.4439000	-33.8584850
2230.5981000	1.2691878
2222.3653000	-29.8511750
2207.4171000	15.4377990
2228.5003000	22.3817070
2250.6671000	2.0620272
2208.2610000	1.4006548
2214.3841000	30.6179070
2218.8019000	33.0719700
2143.0883000	3.1684256
2179.1227000	14.3138240
2188.4056000	-11.9192540
2141.4553000	38.2275130
2153.6699000	-36.0509670
2099.3057000	4.2650738
2143.6801000	-9.1406925
2134.0843000	40.1816580
2103.1487000	14.6733860
2053.9541000	-9.4522090
2046.4032000	-10.5961680
2054.6901000	14.9294930
2101.1259000	17.8825860
2089.9599000	5.3817994
2064.4775000	-31.8947320
2066.3330000	44.0695550
2015.9259000	-8.6035518
2013.2686000	-35.5900270
2029.8256000	8.8693653
2015.3646000	-19.2528820
1965.2206000	10.8433580
1947.3170000	0.6853558
1964.5024000	-8.4240131
1963.6295000	-17.4858510
1920.4830000	17.9930170
1904.0145000	-25.1205700
1958.2445000	4.3082887
1938.4929000	7.7311448
1874.3702000	18.2665500
1871.7528000	-13.5978700
1854.4903000	39.9753080
1924.5983000	23.2537750
1903.2426000	-19.0256060
1826.3120000	-28.7676020
1886.6269000	27.5620070
1834.1197000	-22.8282550
1802.8125000	-0.9715921
1817.8623000	-4.0250286
1809.4808000	19.3987080
1817.9032000	-18.4493290
1817.7966000	13.6128040
1827.2784000	31.8625450
1791.4450000	30.3023510
1811.3082000	-44.0195220
1739.6397000	0.8419326
1733.7479000	18.8063070
1717.9004000	25.1515950
1749.2242000	-15.9453570
1774.6720000	29.1561720
1770.8609000	-2.2479321
1736.0183000	-23.0604900
1676.4154000	29.7058770
1743.9978000	-40.0064190
1684.5109000	-28.6579020
1716.8935000	42.4893760
1694.1504000	-20.7220760
1661.4206000	-31.6853750
1712.1901000	27.3328990
1655.8842000	-4.5411008
1680.2243000	-18.3747880
1626.7114000	42.1867550
1634.3746000	-22.6256600
1614.3149000	6.4008332
1618.8615000	-6.0758100
1575.4328000	7.1121259
1623.3730000	26.5429050
1593.6689000	-16.5590170
1588.0343000	-23.1604250
1580.0218000	-14.3490410
1604.9573000	-19.0755730
1549.9938000	-35.3333520
1578.6529000	41.4709800
1592.9298000	25.1077540
1537.9419000	8.6325413
1506.7446000	7.3296780
1551.0429000	33.6260090
1491.5232000	41.9496820
1547.6570000	12.3003130
1485.8616000	-6.5949449
1518.2283000	42.1007240
1540.6147000	35.5300780
1479.1841000	36.6739480
1453.1145000	-37.2587580
1463.5770000	-13.6242780
1471.8266000	13.7763300
1481.2841000	-2.7784491
1421.2817000	-1.6113265
1442.6519000	40.6921280
1471.1504000	4.1605138
1458.3853000	-2.4870505
1388.2106000	1.4394962
1411.7445000	37.3423410
1375.3110000	-37.3765320
1431.6353000	36.9229570
1431.6652000	-20.3172760
1371.9076000	-27.7319350
1426.9568000	23.6952530
1399.6466000	-26.4990420
1384.3262000	18.6890790
1357.3081000	39.0744280
1404.0743000	-40.9855670
1338.8165000	2.2671387
1348.1435000	-32.2128790
1323.9690000	-13.6755570
1314.1875000	-4.1714866
1343.3350000	-16.8985110
1300.8683000	-37.2107770
1327.8322000	22.8994560
1292.8467000	39.9894410
1317.3102000	-31.3790840
1330.0383000	38.2974070
1329.4421000	-19.3086000
1264.7951000	-10.2045190
1247.2200000	-27.4026410
1315.6044000	-9.5276148
1254.0092000	-21.4325360
1224.1117000	-13.0607630
1255.7698000	-26.9415880
1288.6378000	-0.5630045
1233.9954000	28.1269480
1204.6283000	-31.9712010
1244.3079000	-9.4150338
1243.4028000	-41.3886070
1212.4277000	-14.4526840
1213.3248000	14.2895850
1240.4595000	-25.4680050
1208.0400000	-17.9397050
1189.8315000	-2.1732688
1178.7900000	37.3632670
1158.9903000	20.7220000
1210.7212000	6.8688298
1205.0373000	-13.3985470
1207.7689000	-12.0514030
1159.6670000	4.7748631
1119.3693000	-24.2458360
1197.6687000	11.2642110
1169.3453000	25.1883830
1160.9361000	24.4936870
1098.4526000	18.0386320
1098.1907000	-14.5572300
1131.3977000	-1.3855167
1152.2513000	-43.0784060
1103.0524000	-8.5957104
1087.1716000	-39.9954330
1120.1096000	42.2821950
1129.6914000	10.0955380
1057.3383000	18.4948870
1095.9406000	5.6217601
1087.9868000	-35.7858930
1103.8696000	5.4981177
1094.3784000	-21.3206670
1064.8671000	-6.1483281
1076.9783000	-29.0305950
1045.3658000	-38.2558330
1020.7121000	-14.2463100
1034.7675000	-2.2944783
1050.4612000	29.7787470
1010.2944000	-27.8173300
1075.3830000	34.0793620
1001.6826000	9.2806829
1045.0324000	-23.8826570
1035.8460000	-13.4260950
980.7950900	25.6517820
1048.7212000	-6.7223409
964.2318300	10.3039470
1002.9974000	22.4233770
964.7429300	31.2166650
1032.3439000	-17.4545730
1002.7822000	21.4166840
1018.8018000	18.6737520
1000.8489000	17.8569860
972.9150000	39.5960260
943.0154100	3.4802321
987.1135900	24.0692030
995.3250400	-0.7225288
934.1611800	-24.0714920
939.3852300	-28.3113270
925.6081400	21.7990410
966.7300500	-11.7515590
938.5007500	-30.9207310
921.1368500	-38.2157790
972.1977700	-2.5443004
920.1047300	25.3629490
954.6147100	27.7708230
911.8853200	-37.2939660
933.9377000	-11.4440360
911.8293400	-24.2160310
932.3947700	16.4399400
921.1772700	21.9118140
857.7124800	-11.1871930
895.0407500	11.1562090
921.2193300	35.0744140
867.4719000	-0.2464400
873.3526300	-38.1876630
908.7845900	33.8718570
846.4775800	35.7372640
905.0808200	8.8625593
883.7137600	-11.7426540
889.4995200	-12.2015030
828.6201200	11.2575550
881.6257800	-1.0447189
869.6443700	0.4404532
815.7848400	20.4875210
808.3897000	37.7135500
859.0495900	-5.9527085
823.7048600	22.7585150
831.8595300	-8.8931692
796.4566500	-19.8528300
824.3446900	33.8464760
780.9794900	28.3605740
809.9259900	29.0175730
765.1817000	9.9210217
766.3687500	-3.4681181
801.4719100	-5.2949998
783.1529400	39.4679070
796.0402800	13.2050450
765.7598900	13.0960530
825.2228000	23.1681420
782.9717100	34.0398890
795.4837400	-23.3198930
766.1000400	-40.4392700
753.5345500	-43.1123700
772.1852400	-30.2397110
801.0070600	41.0950440
732.0792500	-15.1346770
739.8351200	27.9668460
722.9043200	-25.2928510
710.2814000	-5.2228455
719.8006700	-0.6767735
752.4587000	14.2021320
762.7547300	36.4692720
705.6433900	28.4527560
752.8232000	-14.0503780
746.8594400	30.7198230
724.7068300	34.3631980
755.5865200	-8.4834072
714.4044200	24.7260820
747.3577700	-25.3617720
752.0887100	23.7656560
674.4771000	-20.4959510
692.6918700	-39.2104740
729.1764200	-9.5650031
686.2572100	35.8775630
719.1263200	-3.5326100
683.7042600	-0.8835464
691.8998200	-13.6247040
728.0522800	39.0886900
678.6049700	40.1605890
718.1649000	-40.8617870
634.0823200	-16.0351320
673.4595200	-32.6937040
661.8510500	-7.6603107
692.4504800	-1.8321719
645.4272500	-27.0297640
638.3363500	37.0910870
664.8563600	41.6390310
675.2529000	-30.8438210
635.0232500	-38.7722990
640.0153300	-26.9966120
650.5188600	23.9222650
614.5083600	-42.7370250
602.7229700	-0.7239816
637.6921100	31.9887290
640.1360600	-16.6725220
660.0697800	-21.1758150
667.9296500	13.8068950
624.8625300	35.9350250
620.0480900	-38.9759970
604.1907300	-30.8238750
580.8859300	19.2184880
627.9327000	-6.5455405
600.7734300	37.0882680
571.3274800	-39.5429350
641.2133900	32.9746750
610.4093800	6.8388890
617.8122700	-35.0790560
633.7357300	-5.6539459
583.0511300	17.9214710
609.2973800	-10.7886790
626.2290100	-26.5566480
540.3705000	-13.5347240
592.4000900	13.5650910
588.9756400	23.9369710
553.1325900	29.4601940
590.6317600	-17.9450620
580.3537100	34.1631660
611.0914400	36.8831070
594.1122200	-29.9509100
551.9265400	-41.7373080
584.2275600	15.3822680
545.5128600	21.2293620
532.6433000	17.7910920
561.6626600	14.5637160
570.9092400	-7.2980109
572.2881800	13.0864160
565.4237000	-24.0801300
544.5981100	30.0693450
524.0532000	36.1512880
502.3679500	-15.7300710
545.8093800	15.1002530
542.5476700	18.8315060
492.7648800	-40.8789310
494.8896300	-33.2376070
506.1320300	-10.8990780
496.7412000	-5.9718490
484.1715900	17.3973320
477.7527300	12.1776420
526.9543500	-27.6195090
492.1001800	-32.9288320
532.0239900	7.9877775
470.7018300	20.3640400
502.7961100	29.6789510
541.5841700	-9.4696486
499.5934100	41.4676890
532.6933500	28.4409840
506.8107800	-34.1260100
533.3150400	8.5961062
477.5860100	-30.6557080
505.9153100	-7.5237776
488.9038300	-16.1415000
485.8299200	-22.7276730
507.0005000	25.7171490
449.4252000	34.4931340
481.9706900	4.4160438
475.7418000	-30.6406200
482.9727000	25.4344170
448.9199900	-18.9941670
472.6815400	24.0290320
423.9276000	9.1571551
499.7686400	28.2302990
492.4605300	-4.7505279
457.8392800	8.6959250
433.4697200	-13.7518490
498.1569700	-10.4645930
428.5956300	39.9613490
447.7245200	7.4209271
416.3581800	5.1960699
406.0604800	-18.8346910
440.0270100	-37.6993720
421.1011400	0.1952172
442.5044800	-3.8621222
464.2571700	-3.2126826
407.5475200	18.1178290
409.8177500	36.9613700
409.6843200	37.9688910
458.8939300	37.1825300
417.0138900	-17.9958530
409.7723000	-4.9247614
450.7996500	26.5116760
409.0930400	32.4678040
430.5121500	34.9922810
392.8827600	38.3840100
412.5095500	7.5046017
418.7697700	-30.9316860
453.9086100	-10.7418160
372.4800800	27.3145220
387.0390800	34.6585670
400.0327300	-31.1867170
438.7155800	9.4597719
441.7859300	-26.6601790
433.7578200	26.4817430
411.9733900	29.3754500
387.6854900	19.2201160
381.0468000	18.9009100
393.0946700	-22.7878110
362.0487000	18.1624300
405.8099400	15.1756890
363.3741200	-0.8808514
417.1509000	23.8498020
392.5906800	31.2872770
409.5182300	-40.7010680
398.6627100	-17.1888090
376.5218900	18.4865430
353.4853600	42.4456630
391.4161400	13.0763450
349.3153100	11.9954730
410.1835200	-39.1903470
371.6356600	-5.3651537
381.0189500	20.5779060
364.4772500	-19.2029730
372.3165900	30.0500490
344.8358900	-23.6272670
378.7842800	11.5625310
326.9809700	18.7494870
319.2011600	8.0675439
369.4846200	33.8537540
376.1325700	18.6820240
388.4200500	-17.7704650
383.0850300	18.0361860
336.0160800	-0.8249902
318.1150000	19.0089030
306.8262000	41.1283230
373.0441500	-30.2608800
319.0832600	23.7853570
344.2069100	-40.4795130
350.2383600	-41.4552780
333.4995900	-17.3777060
333.7807300	29.8317880
330.1471600	-7.4256415
365.1440100	42.5268820
359.0118600	42.0391290
367.4962100	-8.9795002
360.8688200	-32.9976740
367.6488200	-39.1288630
291.1850700	-36.0615910
283.1497200	12.7007030
295.4740700	35.4917360
306.7452200	-13.6535760
309.9845600	19.5554640
275.5708800	1.4683106
329.3287000	-24.2915530
328.0819800	10.9357980
282.8225700	34.8718430
281.3523700	36.1505910
333.1596800	-19.7865250
313.1758400	11.8820820
297.0644800	-40.2340290
312.8008700	-32.3284470
272.8333900	7.1993527
340.7474300	39.3755630
337.4220100	35.5990450
302.1818300	-8.0175389
306.3949200	11.3976880
275.5551000	17.5016410
337.8700800	11.7738220
307.8912400	30.3980760
276.2554300	19.6448210
263.0846100	21.0487080
279.1900200	-4.9983066
247.8322600	29.4177750
325.1624900	18.1782480
259.2938300	-20.5008850
327.4467700	-28.4057900
294.4608800	40.5784540
300.3798200	-19.5392710
276.1122200	-28.3388450
286.9983200	-2.9413784
293.2242100	-30.5105180
273.9795400	-40.2544260
260.0872700	30.6629400
243.3088100	26.0111740
268.0314500	4.7920431
259.3973000	35.4440310
241.7811900	-6.9667076
271.7315200	13.3472050
265.2409100	-42.8615030
272.5334400	-28.9310630
258.5896600	-14.6231320
223.8696400	-3.6861947
258.2083600	32.5530500
239.0717900	2.4210006
275.8939000	-7.9201500
266.1585400	-41.3920570
291.7487200	-4.5112265
270.3925400	-31.6619310
291.7161500	-6.2737727
279.8865000	-12.7068990
225.6534600	42.5590800
290.3423100	10.7479690
265.0347900	36.2380040
287.1937700	22.2574010
247.1957600	-28.1642210
258.1921800	-1.7227656
277.6406600	-19.5051590
278.1028300	31.3938170
273.9675200	39.6442460
209.7118300	-14.6740920
238.6310300	28.6976800
216.0895500	15.7513470
204.3401500	30.7356440
241.1280400	-16.9828160
272.0528600	-40.8273460
236.0301700	-33.7618470
274.9120200	-4.8801792
198.4235200	35.3473150
253.3369200	-1.5452655
199.4968400	-17.5698960
238.0767400	10.8950110
201.5758900	19.4706200
216.8989800	6.1354060
227.1577700	-14.3943110
233.0876200	27.7668180
207.4513400	17.6964190
182.0654000	-33.9944550
259.9271800	38.4450310
249.3146500	18.8260780
214.0628200	21.1853540
233.0264800	-25.6508900
177.2070200	11.5666470
186.8590000	22.5921320
201.3403100	-30.1639040
257.2140900	-2.3873023
178.5715300	-13.0889080
228.0197600	38.9709420
212.8534800	-12.0535460
206.5164900	26.5711790
234.5528500	-25.3941990
239.1799600	25.3451590
205.0527600	15.0772680
200.6394100	-40.9866410
204.7957200	-23.6974580
219.4788900	33.7130030
170.3280500	15.3384410
208.0474600	-1.2528314
201.3066300	33.3739920
199.9562000	25.1662460
189.9790900	-38.3342630
183.7488000	21.6638720
226.2765600	-12.2759740
190.9401000	9.0799973
156.6196000	25.6591670
194.4210500	-0.2230254
158.6816300	18.7797500
175.9226300	-12.5322610
188.0656300	-20.3063970
217.1001700	-1.1202851
214.1192000	0.3551490
219.9094400	-33.6064890
224.0583900	-27.0304750
155.6597300	15.6777120
204.8876100	-20.5883010
154.4770300	15.9200490
191.4029800	4.6787417
165.9949000	42.1002160
195.4693300	4.2996830
150.2308400	4.4904933
207.9908300	-13.8775880
159.3599300	23.7248220
205.7371200	16.3293790
145.5942700	12.7134020
144.3134300	10.0936980
195.2261600	2.4179389
178.1279800	-4.8208752
158.4361500	42.1616580
155.0294800	14.2341760
194.0551800	-23.1833540
200.9988400	-31.1905120
145.4639900	-20.8093920
143.4283300	17.9069430
180.6153800	-10.4770610
168.7432500	34.7156020
197.2791400	21.9140690
132.9791800	0.4204860
126.9344400	16.0475290
150.7441500	32.6287100
168.4371500	-32.3118590
130.5792300	-29.0467650
140.9168200	16.1873630
170.0420400	-14.1613020
187.7099400	-36.1764620
135.2227300	-11.7207940
204.2288500	22.5996710
153.3426600	-10.2872460
147.9939100	-32.3370350
139.4394500	-33.3584680
176.4193300	-26.4954780
199.2933300	4.2719223
164.8588600	19.1596710
196.0516100	-29.1944460
156.8084600	-39.5713700
162.5166800	-31.0754140
113.0825800	15.8776440
129.9679100	34.9338550
113.1013700	-29.8245220
183.8750200	8.6721652
160.4012500	-4.2149314
193.6241600	-5.9598296
150.6642700	-0.7312977
153.7477600	-36.0700320
168.8634200	-0.6581096
138.1140500	6.1840056
118.9718400	20.5360230
184.4801800	5.7323821
108.5179400	8.1506697
125.8114800	-11.0811460
123.0953400	41.0344310
181.6935300	-17.2485870
101.7715900	35.1636270
145.5270400	-26.9762230
183.0572800	9.5443675
150.9034700	-5.7713823
156.0666900	36.4741170
125.3596700	-40.2726480
163.8622200	10.7729310
111.0282500	33.2695560
109.5471800	-11.7790280
98.0405160	6.2034745
121.0091600	-18.4870570
118.9680500	-5.7709356
104.1935700	29.5247350
176.9912700	27.5442130
117.1957600	10.5777520
151.7866800	-28.7322970
168.0090100	15.6614530
152.0090800	-19.0204650
116.4425600	20.5668910
136.2249700	42.9733100
113.1398300	-22.6263230
106.7962500	-31.9727360
105.8421000	-6.7665850
144.2684400	15.9340180
145.4723200	10.6864420
159.2920100	15.6119290
86.8857800	-32.2236780
150.4106800	-15.7073580
166.9363800	39.2290140
84.2742850	-18.0652490
129.3057100	8.8216971
103.2855200	23.5640730
130.0665000	18.6709610
128.1877800	5.9765718
112.4461100	38.8304420
97.8136520	-24.9891770
150.9086500	-31.6715380
97.6583980	39.5489800
113.5156100	14.8789940
89.6593250	16.6641940
137.1175900	7.0152359
135.2459200	-31.5179890
148.9771700	-13.7138320
124.6393800	-32.2969130
130.3579800	-10.8071940
104.7644300	-29.7399130
76.1644160	28.9028300
154.1045500	27.3927420
143.5268000	-17.2064320
154.1121400	37.4533530
146.0533400	26.2277270
119.4398300	24.7744700
120.0593900	-23.6884370
111.1896700	-32.8276840
131.0437800	-27.7422710
109.9760700	29.0080760
76.3230360	-36.3688720
106.4404800	-4.8347297
78.9933370	26.0395330
78.3412190	-7.9008734
127.1646700	-14.4795960
97.6048770	39.0177390
92.8783970	-26.7318310
119.8392900	3.3223728
104.2017300	-28.8564750
127.3952600	5.0353877
84.9950040	27.1104250
111.4865500	16.6437790
69.0693960	-22.8929370
104.8961900	27.4577730
93.1743060	11.4016730
115.6244700	40.6490420
137.2334200	32.7985410
131.8857300	-21.5819400
133.4318700	20.9432740
78.0631150	36.1551430
74.0037740	6.2575514
59.2372520	12.1277300
132.3377400	-4.5737354
65.6485300	33.7131290
91.3922380	-38.7830260
79.2772330	23.3769570
128.8759500	-11.5736630
66.6086710	-6.0659307
133.0542300	-18.4378230
128.7658700	-23.4177570
128.6397900	-6.0671418
128.5773700	36.7044090
98.6019790	-16.5363870
134.9296800	-12.1179140
71.5049810	-38.8644540
90.4726350	20.8979550
63.8553520	-1.9584921
51.4279740	3.6995268
69.6647250	-8.9598686
124.5382800	-41.0149050
72.5801240	-25.3710280
95.9585750	-5.5789613
77.8444150	-16.4003480
52.7812770	38.6866890
54.5272940	29.2355770
74.1295650	-15.4382700
90.3150350	12.7910770
49.1510540	-31.2433020
116.3394200	-26.5818920
99.8780780	-4.3154507
85.4807120	24.0117390
102.6857500	-33.7347030
91.6963160	-20.4995060
59.1227940	-6.6628112
58.2116240	4.1290361
114.0238200	26.5847920
79.4387190	41.9412750
106.5302100	38.4195270
94.8996240	-11.9040450
105.5757700	11.8674110
70.0120050	-28.9470930
95.4755250	-2.7671236
45.1723810	15.5107470
123.6409100	11.0592680
123.3251100	12.7655670
105.3176500	4.8653679
54.5904350	-24.3467830
45.8131350	-9.2276017
81.3367870	-17.6927500
98.8123660	-2.6856977
57.0121370	-29.6674470
117.8917900	1.4028004
94.1035240	34.3750180
64.2794490	-1.9501753
35.6621450	31.8462110
118.5470900	11.1628310
48.1086360	-6.4146844
82.8356800	-30.1504900
70.0202010	15.4647640
76.9864680	-21.2634240
109.6516100	30.5019890
48.1353190	-23.8998880
55.7943770	-32.9364880
50.7830310	2.2165810
67.7066850	-7.6891457
61.2722790	-29.9554440
111.5528700	5.5160805
111.5162600	18.8467820
65.7616120	18.3900910
85.4318290	37.6531370
93.5599720	-32.2888440
45.1437260	-39.8788650
44.1529590	26.8027830
65.1395300	25.8035860
72.0211590	-36.8643070
42.1130260	-17.4048970
81.7194370	-42.2879590
97.3471740	-28.4888660
37.2843420	-11.1540020
57.0242380	-25.4131470
27.3223910	-11.3243030
33.6038260	-36.8755310
97.9529370	12.7262160
58.3940100	-7.9934633
69.8955190	-36.5526550
59.6276390	-41.3372810
60.7466800	0.3656285
104.7394500	-12.9669250
39.6632370	-11.6680050
23.6987020	-10.5854490
43.5031490	18.5444160
32.7660010	12.3763230
26.8321500	33.7369520
49.3232830	28.9262720
25.0490100	9.3112625
26.1057190	-1.9288470
34.4958720	20.5691430
102.5370400	24.2173650
41.7797240	38.5179930
24.4374760	-29.3495030
24.7429770	-41.6785060
46.4484880	30.1397660
91.8515210	2.9241127
20.4938320	-37.2056980
36.0107030	6.9789503
83.5345440	-37.0810510
73.3475740	26.1682410
82.1485540	35.6764640
40.9298000	20.7326190
43.3099550	-8.2333088
31.2831630	-20.3720190
102.3709900	24.5501960
44.6818030	25.4837180
87.7889370	10.6035120
99.0987470	1.5446080
17.7419880	-22.5643950
21.6032050	-39.1095180
37.1807680	-22.1849470
77.2264840	-1.9500355
59.3738420	39.1434230
76.2092940	-14.3289150
71.1736730	27.9926490
67.1481310	21.0749770
23.8818730	24.8342000
26.9194790	34.1341540
74.0916250	-12.5450730
31.0391820	-35.3696190
88.8955220	-22.2498080
60.3040930	-4.7756871
45.6544670	1.2621309
29.0048600	15.9992840
45.8912210	21.8651650
21.2461380	-24.3975780
95.7580680	-15.9119250
36.1692020	25.5513590
82.7392770	29.2154870
93.4977480	-9.8115880
63.4128510	26.0232240
14.8250250	-26.3599590
46.7473790	5.2185240
86.5426070	-5.0948914
73.5131220	29.9998520
48.0832250	19.9479770
40.5786080	42.7879790
30.2507970	-36.8737810
28.1336500	18.4305340
62.9478410	21.8183890
71.9303230	-39.9132990
75.5351460	21.6765870
33.9518110	-5.6322576
89.2901290	-27.8044130
61.5939120	33.5780670
78.2243360	9.3057383
86.1590700	22.4227790
73.6137370	25.7676190
18.8974510	11.4117590
42.9274070	35.4480880
54.4561700	-28.7749310
84.1606700	-40.7758640
79.4697490	-36.6794850
43.2585410	-12.8197800
32.5426090	40.7044490
39.2539110	-18.5008140
45.5227260	16.6553690
44.7079160	16.9764270
62.2364270	-4.4176979
75.5633450	-33.2950760
15.7549910	14.6623800
21.7468410	7.0637375
82.6789680	-31.4459000
54.1937790	-30.3996640
12.9131780	37.2697340
35.8889510	-2.2464080
79.3823860	24.3478430
25.2888510	-26.0870000
76.6046660	26.2855060
74.1565050	16.1836830
42.0239630	-28.7604780
75.8191040	-17.3960010
83.8161980	37.5541750
60.4010980	-22.5677140
38.6429270	12.0364540
77.2623610	26.6529150
54.8870740	0.6871143
19.3966330	-31.2340410
-0.3868861	-40.9662260
21.1843010	11.3912940
23.0944000	2.8710058
66.5824050	24.4565530
23.8958610	-12.9753880
1.2650631	38.9934010
15.0050840	21.3394060
34.3794410	13.7778900
77.6857890	-20.6092570
73.0559590	0.3182863
72.6861060	-6.2499365
78.9428410	34.4936310
65.7698480	5.8365502
42.1538680	37.8240940
35.8811950	15.6005190
57.3377750	31.9914800
44.9109990	3.6600534
48.7535490	-4.8741986
4.9596268	25.4547900
67.1108240	22.1315270
51.8276310	26.5533640
22.1798470	41.2605750
49.6639410	16.9784920
59.2077710	36.2414790
2.5012394	-29.4856730
29.3165180	3.8298181
45.5073350	-29.1515570
15.8774550	-28.7822820
18.0038010	-3.8840123
17.2881050	28.9349840
67.0152740	26.0442390
19.2904660	23.2606410
-1.2271875	26.2594510
37.6049770	14.7531640
47.9103750	4.8073210
75.8755980	-12.9840630
53.8605730	-24.6909360
16.4386010	-13.5259310
53.2813200	22.2804020
28.7941610	30.1106130
12.9207340	4.5242714
24.1153580	16.0533930
2.7337524	2.4069789
-4.7038624	-22.4144210
32.2983500	-9.4177276
-7.8942585	-13.6373750
60.8665240	9.1928394
30.5003680	30.9747150
25.4152370	-7.1859841
75.4742860	37.3397480
8.9523172	-14.3016390
36.8627600	-14.3944900
49.8053390	-38.4623640
3.1105791	12.3182540
21.0740580	40.4445100
18.9232700	24.3888270
-4.1549922	37.9310150
23.5362600	3.4321103
65.3747300	15.0577930
71.0799320	-8.7278344
15.6156770	38.7404350
56.6984180	-41.1153700
42.0129030	-21.3357530
-2.3956887	-31.6018110
13.0734370	38.2198300
-7.8469715	-6.0866031
48.0782160	-2.8158451
51.4321880	-1.8407205
18.1388030	15.1910540
65.7731860	-2.5465967
66.8717530	-34.3748000
11.6864260	42.2359370
58.1813790	12.0754740
38.9789790	35.6981120
62.7277760	32.3314470
5.0361846	6.8132135
58.9139460	35.4744580
61.2060420	18.1461810
-7.4073840	-35.1850920
18.1876380	-36.7923320
60.9904810	-31.4052920
66.9797730	-22.2890140
69.7962290	16.5668190
7.5031269	15.0095030
16.4593020	42.4384930
25.6930380	-38.2354240
65.3607850	-18.9357730
-3.0353607	34.0690740
10.0833400	-26.3099740
31.9712160	-12.4311580
21.6198950	0.7849077
52.9859050	-8.8205492
26.9471730	-21.9108440
9.2118963	37.4604330
-13.2170240	-33.5077630
43.6611040	-28.8432320
30.3745130	-13.9758470
29.4147270	24.9603940
53.9609950	-28.6217060
45.7696920	9.3932460
-14.7477490	24.3679350
40.5895780	-18.7857570
26.4442620	-8.4863714
-15.9733370	-16.5209100
1.3132826	39.0418670
34.4814910	-37.8274320
65.7641190	5.3662707
43.2453390	-13.8303640
47.9951860	-20.5098730
12.7638700	-27.7236580
53.8264970	-1.9404208
51.3062760	10.1231200
-11.5771450	14.4529910
-9.7813520	32.2962210
29.3545320	-26.1078160
-11.0759190	7.0302407
43.7867420	-19.0932760
-15.2665920	-18.8109070
16.0705640	9.7422595
-0.3654216	-10.6552280
23.2966310	35.5709940
9.6928414	2.1304134
10.7213770	9.2216662
53.0714370	31.9994780
22.4904680	23.2106790
-7.6353171	7.1124352
32.8395560	24.2202790
63.3813230	-34.6510670
24.9885240	-22.8085110
1.6973362	2.4076964
35.8439190	2.1958867
-4.8002208	-8.7787426
48.0302270	-29.8474160
41.5856710	0.7015201
54.4941090	-19.6091310
31.4547230	28.2014010
38.2741480	9.9088425
32.3520380	-34.8356230
10.0767180	27.5925980
46.1911070	28.0947910
24.0271640	-40.3188820
32.6358740	-37.3215160
61.4758610	39.2522540
16.8918380	-5.1079727
29.9614130	-33.7980180
48.8704150	-25.6192610
56.0128760	2.2320696
51.2802920	7.8967061
-2.3596383	1.6360699
-4.3301542	-0.1400861
-7.4218658	-4.0330151
5.8170108	11.4188420
-0.8155736	41.7484150
14.7570470	8.2082909
-12.0554870	22.5404730
39.9093280	4.1951212
32.4995170	36.2682280
54.2829850	32.7406020
2.9803449	-26.6810740
15.2626670	10.4125690
-14.3127550	-10.3389890
28.3944980	-23.1148430
40.7900060	-20.5137150
4.9698511	-33.3144580
28.3085210	-0.7901445
11.4020290	42.2483310
-10.0436450	-4.8443347
24.8327450	14.4505940
59.5252580	-37.3379320
-16.4344240	-5.0728687
-2.3483770	24.9348370
2.7146423	-3.6026037
56.6757210	-27.7939200
5.7496093	-38.5031230
59.2932620	37.2539450
27.4169360	42.4871180
53.1603320	-41.1843780
23.2741180	8.4678621
45.7421530	-1.8577232
2.2823028	-8.8821337
-13.6278590	-40.8762080
43.0460990	-36.8139420
36.0348540	-24.5077530
-17.2868830	-38.7249240
-3.4759189	-8.3514857
48.6380710	-14.0325330
2.4526383	-40.5210680
-3.9231142	-8.4731199
42.1112010	3.4392607
-16.3353120	-18.5808190
39.7854940	27.2351540
7.5836905	11.8329110
51.2903390	-37.1153130
56.3874420	31.7904590
-3.3149777	-38.7215300
38.6952890	7.7774011
21.3076660	-11.4399330
-17.5599320	10.7099880
-11.7563240	29.7768080
-9.8393454	-42.3970580
-14.2885030	16.7319110
20.9992960	-27.3505610
56.6794820	-0.2217469
-17.9529450	23.3062820
10.9570150	-13.2695790
14.5513960	-15.8861660
-20.3056930	-42.7333710
-16.4113090	-10.4876140
35.1861520	16.5884870
-3.4611765	4.0208165
-3.8262519	16.8665430
49.6986600	-13.3630460
-5.4055278	0.5603539
24.4398320	-14.6128280
-6.1879961	15.6673900
15.7123490	14.4661010
-10.4274400	-35.8389810
43.4837340	-12.1595540
-12.8948940	-36.7066380
17.4416340	-8.5793439
30.0414370	30.7275230
3.2542497	-28.2033170
-18.2011700	-30.3627080
-25.9044420	32.4823760
-1.0108413	-40.2875250
-10.8721610	11.3851930
35.8181690	-1.8869689
48.1162490	42.2062030
26.5875550	-40.8030000
1.7371235	-35.9960560
29.7373300	-5.2027860
-24.9594990	10.5681300
-20.5453490	36.0703850
24.6945150	21.4995410
0.2503696	-33.7042740
51.1016160	21.6582460
-16.5616270	-7.9957693
45.5868090	-12.9501400
42.5941360	-18.1391010
1.4604830	24.6643630
41.5556800	13.7170970
24.2280120	-12.5381280
-0.3855282	-24.2933160
11.2468010	-36.1342110
48.4123300	23.9318280
46.9583580	5.6545877
-24.4858240	38.4323290
-15.6644510	-15.6693470
32.2062090	27.3772290
-16.1459330	-23.7536090
-7.0113052	-32.6065310
36.7085480	-6.5557904
39.9881330	25.9836860
25.3719790	-30.3030050
10.8450750	14.2604130
4.6041805	22.2797400
-7.1791588	-8.0688517
-5.4215391	-39.3679550
40.5141110	0.8176581
38.8290370	-17.7100590
-5.1289672	12.2881010
-14.8765680	-0.5717427
36.2025250	-39.2250060
-29.0096460	-5.5847493
-14.0156260	20.7824730
48.8351450	-22.4962190
-28.7039150	-9.4086100
19.1953640	19.5497250
7.6152156	15.6122730
-11.0092680	10.4250830
-6.2960035	-36.6987710
25.3661990	42.2918550
3.4235978	-39.6551020
37.1960730	31.6823360
-23.9430020	-7.9906851
29.8146390	-8.3804147
23.5329230	32.3271050
5.8765880	-32.4238670
50.7916200	-36.5584600
23.9066700	21.3836080
48.1478020	8.9008160
46.1190650	26.5391570
38.2416340	-12.1012590
16.5307810	-21.4124600
-9.9090648	4.8031198
20.7676470	41.5423220
-11.3867130	9.8192767
-19.4662050	6.6359615
-26.6029900	-39.6316360
-3.7451103	0.1192768
13.5543710	-20.3156700
15.1128500	-27.7885280
31.5055100	-24.7578290
16.4413830	36.9701610
49.2462720	-16.2839660
53.1991460	35.7548830
-29.7036600	-21.1895120
49.8759050	33.7111870
26.6708100	-19.3350100
4.0140013	7.1278790
16.2402420	24.0343290
35.0230730	5.0909861
34.6716160	-40.0434970
26.7688430	-23.4943620
33.6605070	26.2916760
1.6385246	25.0501590
48.1019720	37.3877270
51.4742290	-41.8178130
24.3516370	18.5721620
-12.8711680	0.6051433
34.2537770	20.8300450
-5.9652528	-12.1855410
10.8495910	28.4284800
9.9210314	-28.7336040
-1.2290026	-7.3519156
35.7164900	9.4473115
15.7274210	-26.3476760
30.3057550	-26.5972220
-30.3258130	38.0756530
16.7924230	38.7497090
-0.2904837	-4.4935586
24.0090750	40.8877450
-1.2712400	-32.9300930
50.8702550	-28.9580350
-1.9986160	-7.7167968
-33.6869630	33.4485260
27.7811840	-10.6655330
-9.0638716	-37.4605880
48.2619220	-5.4907401
19.6092990	22.7438150
30.1954430	9.4361412
-33.7136460	37.7019630
2.8962267	20.1437880
20.0048820	-8.9835743
7.8492935	16.1325890
-0.7432254	-3.5883434
-23.8556270	-26.3736850
20.0207260	-2.8263931
2.0553551	-14.7542840
42.3595300	-39.9513060
-12.8945810	-31.2464460
-33.9790420	34.7802490
-19.7564320	-29.0907700
42.5102290	1.1406888
-6.5607021	-23.6427570
25.2680360	-11.5527250
47.4994400	-24.1379710
25.8378350	40.8800380
-30.9779530	-24.8751070
33.4203640	32.2397410
40.0853110	33.7205180
7.5704780	-9.6883153
6.0068116	-23.5795780
50.1571640	19.4598420
48.8720260	-21.8224380
32.2508240	23.8613690
24.7560820	9.9590237
4.0937960	8.8082930
25.7296880	37.0829550
-21.8862750	-34.4074790
36.5653290	19.1175400
-30.9454440	-7.8922999
39.3529430	17.7281460
-27.1493930	37.6847640
38.9791700	14.8552140
15.6641570	-28.7243170
41.0730090	10.6858890
-33.5910500	-34.3265650
13.2424670	-28.4255600
13.4720970	-23.3673730
-33.7104450	13.1058480
-23.1888610	33.1498570
1.7762202	16.2339840
-20.1936790	-16.5944130
20.7747690	-37.3822500
-20.4391360	29.5771260
-30.9589450	41.6352200
-0.8555504	-4.1396266
-31.8889830	-39.2401960
-25.9366750	-31.1232850
-11.8541780	-31.2021590
42.5087460	-39.8482060
-6.3158026	-9.8204019
12.0745800	12.2988660
20.6424420	10.5749490
12.5813240	-20.8680730
0.7425198	-31.8646360
26.5277120	-32.4000830
4.0911652	28.9430420
38.2551720	0.1977426
-17.1800830	-0.5518282
-1.8241488	0.9492492
-13.8217480	-5.4489135
-11.1300490	35.4932360
-35.1708950	-40.6709480
18.0979480	12.0802050
-18.4750090	24.7207510
-11.2400850	-13.8634690
24.5887310	6.4105510
-34.3309350	20.9255520
0.9689192	-23.3622540
47.8161010	-34.4247260
-17.5181030	18.8669500
-0.9290866	-28.9842530
33.4344480	1.5254848
7.9136693	6.0855340
-17.2939480	-18.9190380
31.0220120	18.9508670
-13.3439240	37.9542450
4.9007785	28.9907880
32.7158610	11.9590590
18.7942200	-41.3060990
48.0528250	-11.6674470
-6.5825481	11.0707280
-28.6329570	25.3884350
-8.5980904	30.6249460
8.5828098	-25.7509630
-9.7041368	17.8975530
39.4557810	-28.2740420
-15.7908850	19.8730590
-36.6150090	30.0776720
37.4772470	-12.6567220
-11.6826890	-26.1426390
1.6571714	2.7603403
-3.1322962	-6.4488210
38.7982540	-9.0426779
-34.7984140	-4.9948811
-14.0624550	-37.3440840
-0.3677624	4.6974376
-0.5944192	25.8903450
32.8914980	32.7692990
10.4021860	-4.9323845
11.1710880	16.1349260
-23.9800620	26.5677890
1.6417298	17.9041860
-35.5919870	11.4294910
6.8570056	38.2581060
11.2202710	3.7123110
-37.0699330	21.6362360
-16.6521380	29.2864690
24.1434850	-24.1952590
30.8114640	22.9138890
4.4294185	-38.8353420
9.0541326	19.5804460
37.7286720	2.9747921
-34.8934650	-36.7026160
-13.7297240	41.2941670
-18.2733970	18.8063370
-19.0762580	-19.0383860
1.3629728	5.8734834
-34.7877680	-12.4953330
20.1506640	10.3157060
-15.8616500	-16.6868250
20.2269530	-10.5108800
22.6895700	24.1610570
17.3807890	-42.2784140
-16.7833670	-30.3804320
-25.9766660	32.9692240
-35.1357570	-28.4509390
43.6008340	13.3543700
4.4829385	-22.1817290
-29.1081550	35.7445580
-16.5188700	4.2982956
36.0216610	29.7695880
12.9883360	-34.6803250
32.8917960	-8.5509069
34.7437340	4.1662876
22.0228490	-37.8744440
-1.3501321	-20.1171980
-0.8395548	-7.8915866
16.0823320	39.9976990
26.9979970	1.0996410
3.0018617	-9.7842963
-28.2678310	12.8664830
-17.0841100	24.6391070
21.1281270	7.2642752
-4.0759988	27.6323120
-27.8882430	-31.8327240
34.6675120	30.9655940
-36.1866440	-22.4520850
-33.6998570	17.3798100
30.8310990	-18.9991350
-12.7002190	-40.9566910
-1.7827177	18.0976620
-5.7561463	6.5068323
30.5547600	-22.4073780
23.4266680	5.5515376
-32.1547540	11.9595990
28.7951940	5.0609481
25.3922430	11.2677030
46.9022010	21.8512330
3.3774729	-9.6953925
38.5103830	32.4177130
-21.1128100	7.3986028
-29.0020300	-13.1033650
13.2786900	24.2060870
35.1597860	16.8084690
1.5947116	-38.7995440
-21.8897970	-9.2491538
14.4977190	-15.4519900
18.6871600	18.2068640
20.9041310	-2.4904126
-34.9857750	1.2460086
15.8214910	7.1894797
-32.6557930	-16.4079520
12.1875490	25.8955510
-25.2126900	-9.3648442
11.8091030	36.3093160
22.2279030	21.9832110
-35.7641580	4.5632134
-23.0779240	22.2379460
4.9146358	-41.0292120
24.4437930	8.2896303
22.8391990	-7.1330628
-33.4479630	22.9630270
42.9730860	42.2010230
-36.9558450	-19.8004410
-29.6610970	-31.7037590
5.5704651	22.0264760
1.8970063	23.1564540
-8.4992328	-20.3766750
-12.9816780	-36.8245190
4.5992599	12.9181140
7.6588426	-34.6724370
37.2435990	13.3225550
-14.3904330	38.8492720
-11.3334600	-4.3120175
-35.8367810	3.7650723
26.0016200	35.3718340
14.2219700	14.0666730
-13.1410090	-16.6479480
5.9926203	42.1737430
42.6531520	-17.4665660
36.6882410	-0.0751479
-9.4977599	27.5445320
12.8105610	-27.1928170
19.2614170	11.6672940
9.1408113	36.8175170
-22.7834650	-14.7153050
41.3974910	-25.0681810
33.2113090	25.7979350
14.3931170	37.4785040
27.5040700	6.8091066
-28.1080540	29.0976380
5.4995012	-34.0245590
17.0009450	-6.9327138
-3.4995458	29.8489540
10.2514580	31.0437080
-19.1228900	0.7945175
18.8317570	38.8603040
-16.2810130	-32.1670600
